Folder: 2025-diyraman-bio/data/processed/processed_data/2024-09-03 (part 5)

File: 2024-09-03_calcitecrystal_n_y_y_solid_5011_0_5.csv
Pixels #,Intensity (a.u.),Wavelength (nm),Raman shift (cm-1),Raman shift (cm-1) adjusted,Filtered Intensity (a.u.),Baselined Filtered Intensity (a.u.)
0.0,1.77139e-05,543.337,392.223,393.994,1.77139e-05,8.38986e-06
13.0,0.00138285,544.052,416.409,418.148,0.00116171,0.00115239
26.0,0.00107928,544.767,440.532,442.24,0.000313896,0.000304572
39.0,0.00267505,545.482,464.591,466.268,0.00267505,0.00266573
52.0,0.00202023,546.197,488.587,490.233,0.00139272,0.0013834
65.0,0.00149683,546.912,512.521,514.136,0.00149683,0.00148751
78.0,0.000431428,547.627,536.392,537.976,0.00153367,0.00152435
91.0,0.00235356,548.342,560.2,561.754,0.00266306,0.00265374
104.0,0.00243008,549.057,583.947,585.47,0.00243008,0.00242076
117.0,0.00261664,549.772,607.632,609.125,0.00155304,0.00154372
130.0,0.00273322,550.487,631.255,632.718,0.00139936,0.00139004
143.0,0.0015971,551.202,654.818,656.25,0.0015971,0.00158778
156.0,0.00157054,551.917,678.319,679.72,0.000821792,0.000812475
169.0,0.00310923,552.632,701.759,703.13,0.00209275,0.00208343
182.0,3.65571e-05,553.347,725.139,726.48,0.000512554,0.000503238
195.0,0.000336426,554.062,748.458,749.769,0.000760845,0.000751531
208.0,0.0,554.777,771.717,772.999,0.000586994,0.000577681
221.0,0.00180293,555.491,794.917,796.168,0.00184122,0.00183191
234.0,0.00525235,556.206,818.057,819.278,0.0043957,0.00438639
247.0,0.00620831,556.921,841.137,842.329,0.00653787,0.00652856
260.0,0.00838705,557.636,864.158,865.321,0.00838705,0.00837774
273.0,0.00728218,558.351,887.12,888.253,0.00728218,0.00727287
286.0,0.00638027,559.066,910.024,911.127,0.00638027,0.00637096
299.0,0.004904,559.781,932.869,933.943,0.004904,0.0048947
312.0,0.00438697,560.496,955.656,956.7,0.00324856,0.00323926
325.0,0.00209386,561.211,978.384,979.4,0.00209386,0.00208456
338.0,0.00168455,561.926,1001.06,1002.04,0.000985967,0.000976667
351.0,0.00269888,562.641,1023.67,1024.63,0.00243331,0.00242401
364.0,0.00169049,563.356,1046.22,1047.15,0.00220673,0.00219743
377.0,0.0294195,564.071,1068.72,1069.62,0.0294195,0.0294102
390.0,0.203376,564.786,1091.16,1092.03,0.203376,0.203367
403.0,0.0023452,565.501,1113.55,1114.39,0.0023452,0.0023359
416.0,0.0,566.216,1135.88,1136.69,0.000370525,0.000361231
429.0,0.00173036,566.931,1158.15,1158.93,0.00173036,0.00172107
442.0,0.000946444,567.646,1180.37,1181.12,0.000946444,0.000937151
455.0,0.00197771,568.361,1202.53,1203.25,0.00256715,0.00255786
468.0,0.00295541,569.075,1224.63,1225.33,0.00264788,0.00263859
481.0,0.00165853,569.79,1246.68,1247.35,0.00165853,0.00164924
494.0,0.00385251,570.505,1268.67,1269.31,0.00298468,0.00297539
507.0,0.00118554,571.22,1290.61,1291.22,0.00118554,0.00117625
520.0,0.00335779,571.935,1312.5,1313.08,0.00252641,0.00251712
533.0,0.0021721,572.65,1334.32,1334.88,0.0021721,0.00216281
546.0,0.00325442,573.365,1356.1,1356.63,0.00325442,0.00324513
559.0,0.000323234,574.08,1377.82,1378.32,0.00118855,0.00117926
572.0,0.00183276,574.795,1399.49,1399.96,0.00183276,0.00182347
585.0,0.00579062,575.51,1421.1,1421.54,0.00416786,0.00415857
598.0,0.0043311,576.225,1442.66,1443.07,0.0043311,0.00432181
611.0,0.00321101,576.94,1464.16,1464.55,0.00321101,0.00320172
624.0,0.00266271,577.655,1485.62,1485.98,0.0027272,0.00271791
637.0,0.00320038,578.37,1507.01,1507.35,0.00283056,0.00282127
650.0,0.00150707,579.085,1528.36,1528.67,0.00212139,0.0021121
663.0,0.00452182,579.8,1549.65,1549.93,0.00422638,0.00421709
676.0,0.00418038,580.515,1570.9,1571.15,0.00391486,0.00390557
689.0,0.00289736,581.23,1592.09,1592.31,0.003027,0.00301771
702.0,0.00221919,581.944,1613.22,1613.42,0.00268709,0.0026778
715.0,0.00299583,582.659,1634.31,1634.48,0.00299583,0.00298654
728.0,0.00239117,583.374,1655.34,1655.48,0.00250283,0.00249354
741.0,0.00249493,584.089,1676.32,1676.44,0.0028663,0.00285701
754.0,0.00329096,584.804,1697.25,1697.34,0.00338551,0.00337622
767.0,0.00253608,585.519,1718.13,1718.2,0.00255203,0.00254274
780.0,0.00584736,586.234,1738.96,1739,0.00615633,0.00614704
793.0,0.00562096,586.949,1759.74,1759.75,0.00562096,0.00561167
806.0,0.00192305,587.664,1780.47,1780.45,0.00192305,0.00191376
819.0,0.00143227,588.379,1801.14,1801.1,0.00139061,0.00138133
832.0,0.00135035,589.094,1821.77,1821.7,0.00135035,0.00134107
845.0,0.00283788,589.809,1842.35,1842.25,0.00283788,0.0028286
858.0,0.00332022,590.524,1862.87,1862.75,0.00318092,0.00317164
871.0,0.00395819,591.239,1883.35,1883.2,0.00389685,0.00388757
884.0,0.00379715,591.954,1903.78,1903.6,0.00379715,0.00378787
897.0,0.00331453,592.669,1924.16,1923.96,0.00334701,0.00333773
910.0,0.0029617,593.384,1944.49,1944.26,0.0029617,0.00295242
923.0,0.00302189,594.099,1964.77,1964.51,0.00303773,0.00302845
936.0,0.00249018,594.813,1985,1984.72,0.00246626,0.00245698
949.0,0.00210528,595.528,2005.18,2004.88,0.00225894,0.00224966
962.0,0.0031565,596.243,2025.32,2024.98,0.0031565,0.00314722
975.0,0.00348916,596.958,2045.4,2045.05,0.00348916,0.00347988
988.0,0.00237576,597.673,2065.44,2065.06,0.00237576,0.00236648
1001.0,0.00210316,598.388,2085.43,2085.02,0.00258918,0.0025799
1014.0,0.00230473,599.103,2105.38,2104.94,0.00230473,0.00229545
1027.0,0.00317629,599.818,2125.27,2124.81,0.00288665,0.00287737
1040.0,0.00252676,600.533,2145.12,2144.63,0.00252676,0.00251748
1053.0,0.00186714,601.248,2164.92,2164.41,0.00163038,0.0016211
1066.0,0.00195161,601.963,2184.67,2184.14,0.00172969,0.00172041
1079.0,0.000909136,602.678,2204.38,2203.82,0.000942126,0.000932846
1092.0,0.00208979,603.393,2224.04,2223.45,0.00208979,0.00208051
1105.0,0.00251227,604.108,2243.65,2243.04,0.00251227,0.00250299
1118.0,0.00302877,604.823,2263.22,2262.58,0.00302877,0.00301949
1131.0,0.00210944,605.538,2282.74,2282.08,0.00210944,0.00210016
1144.0,0.00342867,606.253,2302.22,2301.53,0.00335297,0.00334369
1157.0,0.00386969,606.968,2321.65,2320.93,0.00376423,0.00375495
1170.0,0.00161205,607.682,2341.03,2340.29,0.00217943,0.00217016
1183.0,0.00361206,608.397,2360.37,2359.6,0.00304297,0.0030337
1196.0,0.00357896,609.112,2379.66,2378.87,0.00357896,0.00356969
1209.0,0.0024613,609.827,2398.91,2398.09,0.0024613,0.00245203
1222.0,0.00357283,610.542,2418.11,2417.27,0.00300392,0.00299465
1235.0,0.00120723,611.257,2437.27,2436.4,0.00191593,0.00190666
1248.0,0.00409131,611.972,2456.38,2455.49,0.00298779,0.00297852
1261.0,0.00189056,612.687,2475.45,2474.53,0.00182411,0.00181484
1274.0,0.000606807,613.402,2494.47,2493.53,0.000606807,0.000597542
1287.0,0.00296977,614.117,2513.45,2512.49,0.00208549,0.00207623
1300.0,0.00280707,614.832,2532.39,2531.4,0.00195709,0.00194783
1313.0,0.00137603,615.547,2551.28,2550.27,0.00108661,0.00107735
1326.0,0.00234259,616.262,2570.12,2569.09,0.00155166,0.0015424
1339.0,0.00287781,616.977,2588.93,2587.87,0.00167976,0.0016705
1352.0,0.000987796,617.692,2607.69,2606.6,0.00137023,0.00136097
1365.0,0.0,618.407,2626.4,2625.3,0.000170052,0.000160793
1378.0,0.00139131,619.122,2645.08,2643.95,0.00142885,0.00141959
1391.0,0.00185637,619.837,2663.71,2662.55,0.00137147,0.00136221
1404.0,0.0,620.551,2682.29,2681.12,0.000275229,0.000265973
1417.0,0.00211445,621.266,2700.84,2699.64,0.00211445,0.00210519
1430.0,0.00114775,621.981,2719.34,2718.11,0.00225728,0.00224802
1443.0,0.00194583,622.696,2737.8,2736.55,0.00177887,0.00176962
1456.0,0.00181755,623.411,2756.22,2754.94,0.00181755,0.0018083
1469.0,0.000964049,624.126,2774.59,2773.29,0.000433712,0.000424457
1482.0,0.000449994,624.841,2792.93,2791.6,0.000571651,0.000562396
1495.0,0.000912443,625.556,2811.22,2809.87,0.000813888,0.000804632
1508.0,0.000928853,626.271,2829.47,2828.1,0.000928853,0.000919596
1521.0,0.00159792,626.986,2847.67,2846.28,0.00159792,0.00158866
1534.0,0.0011306,627.701,2865.84,2864.42,0.00129142,0.00128216
1547.0,0.00244181,628.416,2883.96,2882.53,0.00235578,0.00234652
1560.0,0.00294355,629.131,2902.05,2900.59,0.00294355,0.00293429
1573.0,0.00242661,629.846,2920.09,2918.6,0.00242661,0.00241735
1586.0,0.000529101,630.561,2938.09,2936.58,0.000529101,0.000519842
1599.0,0.00222631,631.276,2956.05,2954.52,0.00136911,0.00135985
1612.0,0.000128364,631.991,2973.97,2972.42,0.000523329,0.000514068
1625.0,0.00102091,632.706,2991.85,2990.27,0.00102091,0.00101165
1638.0,0.0,633.421,3009.69,3008.09,0.000190855,0.000181592
1651.0,0.000851151,634.135,3027.49,3025.87,0.000493001,0.000483737
1664.0,0.000210685,634.85,3045.25,3043.6,0.000437277,0.000428012
1677.0,0.000181322,635.565,3062.97,3061.3,0.000477556,0.00046829
1690.0,0.00115712,636.28,3080.65,3078.96,6.55789e-05,5.63123e-05
1703.0,3.98116e-05,636.995,3098.29,3096.57,0.000205799,0.000196532
1716.0,0.0014616,637.71,3115.89,3114.15,0.00055775,0.000548483
1729.0,0.00197402,638.425,3133.45,3131.69,0.000562843,0.000553577
1742.0,0.0,639.14,3150.97,3149.19,0.0,-9.26599e-06
1755.0,0.00176527,639.855,3168.45,3166.65,0.00176527,0.001756
1768.0,0.000957607,640.57,3185.9,3184.07,0.000933605,0.000924339
1781.0,0.00167056,641.285,3203.3,3201.45,0.00164954,0.00164027
1794.0,0.00132704,642,3220.66,3218.79,0.00132704,0.00131777
1807.0,0.00113672,642.715,3237.99,3236.1,0.000479569,0.000470302
1820.0,0.000392879,643.43,3255.28,3253.36,0.000572149,0.000562881
1833.0,0.0,644.145,3272.53,3270.59,0.000196071,0.000186803
1846.0,2.52895e-05,644.86,3289.74,3287.78,0.00046304,0.000453773
1859.0,0.000717516,645.575,3306.92,3304.93,0.0,-9.26605e-06
1872.0,0.0026059,646.29,3324.05,3322.05,0.00186297,0.0018537
1885.0,0.000134266,647.004,3341.15,3339.12,0.000477631,0.000468365
1898.0,0.000287175,647.719,3358.21,3356.16,0.00156435,0.00155508
1911.0,0.00241353,648.434,3375.23,3373.16,0.00241353,0.00240426
1924.0,0.000513897,649.149,3392.22,3390.12,0.000127568,0.000118302
1937.0,0.000865534,649.864,3409.16,3407.05,0.000865534,0.000856267
1950.0,0.00279693,650.579,3426.07,3423.94,0.00251338,0.00250411
1963.0,0.0003941,651.294,3442.95,3440.79,0.000690242,0.000680974
1976.0,0.000778534,652.009,3459.78,3457.6,0.000996308,0.000987039
1989.0,0.00120836,652.724,3476.58,3474.38,0.0019886,0.00197933
2002.0,0.00371356,653.439,3493.34,3491.12,0.00371356,0.00370429
2015.0,0.000718254,654.154,3510.07,3507.83,0.000718254,0.000708983
2028.0,0.000990328,654.869,3526.76,3524.49,0.00178645,0.00177718
2041.0,0.00113271,655.584,3543.41,3541.12,0.000515285,0.000506012
2047.0,0.000233882,655.914,3551.09,3548.79,7.13528e-05,6.20798e-05

File: 2024-09-03_glycinepowder_n_n_y_solid_100_0_5.csv
Pixels #,Intensity (a.u.),Wavelength (nm),Raman shift (cm-1),Raman shift (cm-1) adjusted,Filtered Intensity (a.u.),Baselined Filtered Intensity (a.u.)
0.0,75.2686,543.337,392.223,393.994,75.2565,-0.432552
12.0,75.2497,543.997,414.551,416.293,75.2526,-0.436485
24.0,75.2701,544.657,436.825,438.537,75.2565,-0.432681
36.0,75.2658,545.317,459.044,460.728,75.2613,-0.428039
48.0,75.2482,545.977,481.21,482.866,75.2497,-0.43986
60.0,75.2922,546.637,503.323,504.95,75.2819,-0.407943
72.0,75.3131,547.297,525.382,526.981,75.3131,-0.377085
84.0,75.3302,547.957,547.388,548.958,75.3341,-0.356482
96.0,75.3692,548.617,569.341,570.883,75.3551,-0.33593
108.0,75.3263,549.277,591.241,592.755,75.3277,-0.363827
120.0,75.3712,549.937,613.089,614.575,75.3607,-0.331373
132.0,75.3497,550.597,634.884,636.342,75.3497,-0.342966
144.0,75.3773,551.257,656.627,658.057,75.3729,-0.320409
156.0,75.3477,551.917,678.319,679.72,75.3651,-0.328899
168.0,75.3704,552.577,699.958,701.332,75.3792,-0.315536
180.0,75.4148,553.237,721.546,722.892,75.4071,-0.288418
192.0,75.4697,553.897,743.082,744.4,75.4697,-0.22664
204.0,75.535,554.557,764.567,765.858,75.5306,-0.166595
216.0,75.6251,555.217,786.001,787.264,75.6251,-0.0729747
228.0,75.748,555.876,807.384,808.62,75.748,0.0490354
240.0,75.9005,556.536,828.716,829.924,75.9005,0.200654
252.0,76.0556,557.196,849.998,851.179,76.0659,0.365203
264.0,76.2057,557.856,871.23,872.383,76.2007,0.499188
276.0,76.2777,558.516,892.411,893.537,76.2777,0.575376
288.0,76.256,559.176,913.542,914.641,76.2612,0.558064
300.0,76.2496,559.836,934.624,935.695,76.2649,0.560953
312.0,76.2979,560.496,955.656,956.7,76.2979,0.593141
324.0,76.2732,561.156,976.638,977.655,76.2732,0.567629
336.0,76.325,561.816,997.571,998.562,76.3245,0.618117
348.0,76.3114,562.476,1018.45,1019.42,76.3189,0.611706
360.0,76.3796,563.136,1039.29,1040.23,76.366,0.657994
372.0,76.3675,563.796,1060.08,1060.99,76.357,0.648182
384.0,76.3687,564.456,1080.81,1081.7,76.3687,0.659071
396.0,76.3789,565.116,1101.5,1102.36,76.3685,0.658059
408.0,76.39,565.776,1122.14,1122.97,76.377,0.665747
420.0,76.382,566.436,1142.74,1143.54,76.3819,0.669835
432.0,76.4058,567.096,1163.28,1164.06,76.3943,0.681424
444.0,76.3964,567.756,1183.78,1184.53,76.3964,0.682712
456.0,76.3979,568.416,1204.23,1204.95,76.3979,0.6834
468.0,76.4058,569.075,1224.63,1225.33,76.4028,0.687488
480.0,76.4106,569.735,1244.99,1245.66,76.4185,0.702377
492.0,76.4049,570.395,1265.29,1265.94,76.4049,0.687965
504.0,76.4091,571.055,1285.55,1286.17,76.4091,0.691353
516.0,76.4614,571.715,1305.77,1306.36,76.4558,0.737242
528.0,76.5234,572.375,1325.94,1326.5,76.5182,0.79883
540.0,76.462,573.035,1346.06,1346.6,76.4744,0.754218
552.0,76.4644,573.695,1366.13,1366.65,76.4787,0.757706
564.0,76.4799,574.355,1386.16,1386.65,76.4883,0.766495
576.0,76.5177,575.015,1406.14,1406.61,76.5296,0.806983
588.0,76.4781,575.675,1426.08,1426.52,76.4811,0.757671
600.0,76.4684,576.335,1445.97,1446.38,76.4891,0.76486
612.0,76.4728,576.995,1465.82,1466.2,76.4866,0.761548
624.0,76.4837,577.655,1485.62,1485.98,76.5022,0.776336
636.0,76.4901,578.315,1505.37,1505.71,76.4942,0.767524
648.0,76.498,578.975,1525.08,1525.39,76.498,0.770513
660.0,76.5085,579.635,1544.75,1545.03,76.5085,0.780201
672.0,76.5118,580.295,1564.37,1564.63,76.5118,0.782689
684.0,76.5447,580.955,1583.94,1584.18,76.5375,0.807578
696.0,76.523,581.614,1603.47,1603.68,76.5271,0.796366
708.0,76.5369,582.274,1622.96,1623.15,76.5364,0.804854
720.0,76.4994,582.934,1642.4,1642.56,76.4994,0.767042
732.0,76.5324,583.594,1661.8,1661.94,76.5266,0.793431
744.0,76.503,584.254,1681.16,1681.27,76.505,0.771019
756.0,76.5143,584.914,1700.47,1700.55,76.5179,0.783107
768.0,76.5241,585.574,1719.74,1719.8,76.5241,0.788496
780.0,76.5183,586.234,1738.96,1739,76.527,0.790584
792.0,76.5384,586.894,1758.14,1758.15,76.5291,0.791872
804.0,76.529,587.554,1777.28,1777.27,76.529,0.79096
816.0,76.4981,588.214,1796.38,1796.34,76.4978,0.758949
828.0,76.5155,588.874,1815.43,1815.37,76.5158,0.776137
840.0,76.509,589.534,1834.44,1834.35,76.511,0.770525
852.0,76.5446,590.194,1853.41,1853.29,76.5446,0.803313
864.0,76.5227,590.854,1872.33,1872.2,76.5382,0.796102
876.0,76.5147,591.514,1891.21,1891.05,76.5226,0.77969
888.0,76.5379,592.174,1910.05,1909.87,76.5236,0.779878
900.0,76.5027,592.834,1928.85,1928.64,76.5027,0.758167
912.0,76.51,593.494,1947.61,1947.38,76.5054,0.760055
924.0,76.5028,594.154,1966.33,1966.07,76.5114,0.765243
936.0,76.4959,594.813,1985,1984.72,76.491,0.744031
948.0,76.4994,595.473,2003.63,2003.33,76.4994,0.75162
960.0,76.4798,596.133,2022.22,2021.89,76.4798,0.731208
972.0,76.4942,596.793,2040.77,2040.42,76.4942,0.744796
984.0,76.4949,597.453,2059.28,2058.91,76.4949,0.744685
996.0,76.478,598.113,2077.75,2077.35,76.4647,0.713673
1008.0,76.467,598.773,2096.18,2095.75,76.467,0.715161
1020.0,76.4741,599.433,2114.56,2114.12,76.465,0.712349
1032.0,76.4638,600.093,2132.91,2132.44,76.4638,0.710338
1044.0,76.4429,600.753,2151.22,2150.72,76.4429,0.688626
1056.0,76.4391,601.413,2169.48,2168.96,76.447,0.691914
1068.0,76.4645,602.073,2187.71,2187.17,76.4433,0.687403
1080.0,76.4416,602.733,2205.89,2205.33,76.434,0.677291
1092.0,76.4346,603.393,2224.04,2223.45,76.4346,0.677079
1104.0,76.4359,604.053,2242.15,2241.54,76.4356,0.677267
1116.0,76.4359,604.713,2260.21,2259.58,76.4359,0.676756
1128.0,76.3955,605.373,2278.24,2277.58,76.3962,0.636244
1140.0,76.3895,606.033,2296.23,2295.55,76.3895,0.628732
1152.0,76.4013,606.693,2314.18,2313.47,76.4132,0.65162
1164.0,76.364,607.353,2332.09,2331.36,76.3843,0.621909
1176.0,76.3774,608.012,2349.96,2349.21,76.3865,0.623297
1188.0,76.3534,608.672,2367.79,2367.02,76.3732,0.609185
1200.0,76.3863,609.332,2385.59,2384.79,76.3829,0.618074
1212.0,76.3674,609.992,2403.34,2402.52,76.374,0.608362
1224.0,76.3546,610.652,2421.06,2420.22,76.3589,0.59245
1236.0,76.3772,611.312,2438.74,2437.87,76.3712,0.603938
1248.0,76.3507,611.972,2456.38,2455.49,76.3362,0.568127
1260.0,76.3502,612.632,2473.98,2473.07,76.3424,0.573515
1272.0,76.3311,613.292,2491.55,2490.61,76.3313,0.561603
1284.0,76.2896,613.952,2509.07,2508.12,76.2994,0.528892
1296.0,76.3086,614.612,2526.56,2525.59,76.3227,0.55138
1308.0,76.3117,615.272,2544.02,2543.01,76.317,0.544868
1320.0,76.315,615.932,2561.43,2560.41,76.315,0.542056
1332.0,76.2867,616.592,2578.81,2577.76,76.2867,0.512945
1344.0,76.2833,617.252,2596.15,2595.08,76.2816,0.507033
1356.0,76.2701,617.912,2613.45,2612.36,76.2701,0.494721
1368.0,76.248,618.572,2630.72,2629.6,76.2456,0.46941
1380.0,76.2301,619.232,2647.95,2646.81,76.2331,0.456098
1392.0,76.2294,619.892,2665.14,2663.98,76.2314,0.453586
1404.0,76.2467,620.551,2682.29,2681.12,76.2321,0.453474
1416.0,76.2144,621.211,2699.41,2698.21,76.2144,0.434963
1428.0,76.193,621.871,2716.5,2715.27,76.193,0.412751
1440.0,76.1881,622.531,2733.54,2732.3,76.2006,0.419539
1452.0,76.1741,623.191,2750.56,2749.29,76.1873,0.405428
1464.0,76.2141,623.851,2767.53,2766.24,76.1996,0.416916
1476.0,76.1889,624.511,2784.47,2783.16,76.1872,0.403704
1488.0,76.1619,625.171,2801.37,2800.04,76.1619,0.377592
1500.0,76.1736,625.831,2818.24,2816.89,76.1723,0.387194
1512.0,76.1618,626.491,2835.07,2833.7,76.1576,0.371717
1524.0,76.1603,627.151,2851.87,2850.47,76.1603,0.373667
1536.0,76.1374,627.811,2868.63,2867.21,76.1374,0.350049
1548.0,76.1364,628.471,2885.36,2883.92,76.1385,0.350472
1560.0,76.1155,629.131,2902.05,2900.59,76.1282,0.339525
1572.0,76.1471,629.791,2918.7,2917.22,76.1351,0.345814
1584.0,76.1129,630.451,2935.32,2933.82,76.1129,0.323052
1596.0,76.1198,631.111,2951.91,2950.38,76.1198,0.329437
1608.0,76.1689,631.771,2968.46,2966.92,76.1689,0.378061
1620.0,76.1082,632.431,2984.98,2983.41,76.1082,0.316896
1632.0,76.0892,633.091,3001.46,2999.87,76.0834,0.291668
1644.0,76.0753,633.75,3017.91,3016.3,76.0613,0.269182
1656.0,76.044,634.41,3034.33,3032.69,76.044,0.251534
1668.0,76.0246,635.07,3050.71,3049.05,76.0289,0.236121
1680.0,76.0288,635.73,3067.05,3065.38,76.0285,0.235444
1692.0,76.0203,636.39,3083.36,3081.67,76.0143,0.220999
1704.0,75.9871,637.05,3099.64,3097.93,75.9821,0.188583
1716.0,75.9674,637.71,3115.89,3114.15,75.9674,0.173695
1728.0,75.9654,638.37,3132.1,3130.34,75.9654,0.171533
1740.0,75.967,639.03,3148.28,3146.5,75.967,0.172995
1752.0,75.9693,639.69,3164.42,3162.62,75.9693,0.175182
1764.0,75.9455,640.35,3180.53,3178.71,75.9455,0.151292
1776.0,75.9127,641.01,3196.61,3194.77,75.9127,0.118423
1788.0,75.8755,641.67,3212.65,3210.79,75.8969,0.102571
1800.0,75.8891,642.33,3228.67,3226.78,75.8891,0.0947361
1812.0,75.8983,642.99,3244.65,3242.74,75.8983,0.103917
1824.0,75.8539,643.65,3260.59,3258.67,75.8658,0.0714127
1836.0,75.8591,644.31,3276.51,3274.56,75.8591,0.0647203
1848.0,75.848,644.97,3292.39,3290.42,75.8618,0.0674386
1860.0,75.8339,645.63,3308.23,3306.25,75.8274,0.0330664
1872.0,75.8357,646.29,3324.05,3322.05,75.8379,0.0436006
1884.0,75.8474,646.949,3339.83,3337.81,75.8291,0.0348404
1896.0,75.8178,647.609,3355.59,3353.54,75.8248,0.0305852
1908.0,75.7977,648.269,3371.31,3369.24,75.8001,0.00593512
1920.0,75.8379,648.929,3386.99,3384.91,75.8367,0.0425882
1932.0,75.8135,649.589,3402.65,3400.54,75.8135,0.0194447
1944.0,75.7894,650.249,3418.27,3416.15,75.7842,-0.00979782
1956.0,75.7966,650.909,3433.87,3431.72,75.7966,0.00265915
1968.0,75.7636,651.569,3449.43,3447.26,75.7749,-0.0189853
1980.0,75.7449,652.229,3464.96,3462.77,75.7521,-0.0417329
1992.0,75.762,652.889,3480.45,3478.25,75.7576,-0.0361861
2004.0,75.739,653.549,3495.92,3493.69,75.7366,-0.0571459
2016.0,75.7086,654.209,3511.36,3509.11,75.7204,-0.0733139
2028.0,75.7033,654.869,3526.76,3524.49,75.7077,-0.0859908
2040.0,75.7328,655.529,3542.13,3539.85,75.7328,-0.0608785
2047.0,75.7017,655.914,3551.09,3548.79,75.7017,-0.0919762