Folder: 2025-diyraman-bio/data/processed/processed_data/2024-10-11 (part 7)

File: 2024-10-11_sucrosepowder_n_n_n_solid_10000_0_5.csv
Pixels #,Intensity (a.u.),Wavelength (nm),Raman shift (cm-1),Raman shift (cm-1) adjusted,Filtered Intensity (a.u.),Baselined Filtered Intensity (a.u.)
0.0,0.805623,543.803,407.968,406.929,0.8049,-0.0122025
12.0,0.810533,544.462,430.238,429.188,0.805463,-0.0116403
24.0,0.803392,545.121,452.454,451.393,0.804169,-0.0129366
36.0,0.804474,545.781,474.616,473.545,0.806094,-0.0110155
48.0,0.822403,546.44,496.725,495.643,0.822403,0.00528862
60.0,0.863905,547.099,518.78,517.688,0.863905,0.0467868
72.0,0.882691,547.759,540.782,539.68,0.882691,0.0655727
84.0,0.882896,548.418,562.732,561.619,0.883152,0.0660337
96.0,0.88509,549.078,584.628,583.506,0.88509,0.0679717
108.0,0.885748,549.737,606.472,605.339,0.885748,0.0686297
120.0,0.885277,550.396,628.264,627.121,0.885277,0.0681587
132.0,0.889925,551.056,650.004,648.85,0.887767,0.0706487
144.0,0.888808,551.715,671.691,670.528,0.888808,0.0716897
156.0,0.895039,552.374,693.327,692.153,0.894952,0.0778337
168.0,0.903491,553.034,714.912,713.727,0.903491,0.0863727
180.0,0.919727,553.693,736.444,735.25,0.919727,0.102609
192.0,0.939079,554.352,757.926,756.722,0.93728,0.120162
204.0,0.963081,555.012,779.357,778.142,0.963081,0.145963
216.0,1.00661,555.671,800.737,799.512,1.00661,0.189492
228.0,1.05532,556.33,822.066,820.831,1.05532,0.238202
240.0,1.12934,556.99,843.344,842.1,1.12934,0.312222
252.0,1.16536,557.649,864.572,863.318,1.16536,0.348242
264.0,1.18664,558.309,885.751,884.486,1.18791,0.370792
276.0,1.2086,558.968,906.879,905.604,1.20853,0.391412
288.0,1.21343,559.627,927.957,926.673,1.21501,0.397892
300.0,1.21278,560.287,948.986,947.691,1.21629,0.399172
312.0,1.21006,560.946,969.965,968.661,1.21006,0.392942
324.0,1.21632,561.605,990.895,989.581,1.21694,0.399822
336.0,1.23179,562.265,1011.78,1010.45,1.23171,0.414592
348.0,1.24487,562.924,1032.61,1031.27,1.24487,0.427752
360.0,1.24923,563.583,1053.39,1052.05,1.24923,0.432112
372.0,1.25195,564.243,1074.13,1072.77,1.2536,0.436482
384.0,1.25731,564.902,1094.81,1093.45,1.25659,0.439472
396.0,1.26411,565.562,1115.45,1114.08,1.26411,0.446992
408.0,1.26966,566.221,1136.04,1134.66,1.26834,0.451222
420.0,1.25698,566.88,1156.58,1155.19,1.25698,0.439862
432.0,1.26168,567.54,1177.08,1175.68,1.26168,0.444562
444.0,1.26019,568.199,1197.52,1196.11,1.25803,0.440912
456.0,1.26621,568.858,1217.92,1216.5,1.26621,0.449092
468.0,1.27779,569.518,1238.28,1236.85,1.27779,0.460672
480.0,1.27229,570.177,1258.58,1257.14,1.27326,0.456142
492.0,1.27205,570.836,1278.84,1277.39,1.27246,0.455342
504.0,1.27151,571.496,1299.05,1297.59,1.27215,0.455032
516.0,1.27697,572.155,1319.22,1317.75,1.2782,0.461082
528.0,1.28672,572.815,1339.33,1337.86,1.287,0.469882
540.0,1.29385,573.474,1359.41,1357.92,1.29205,0.474932
552.0,1.29975,574.133,1379.43,1377.94,1.29606,0.478942
564.0,1.28798,574.793,1399.41,1397.91,1.28876,0.471642
576.0,1.29761,575.452,1419.35,1417.83,1.29362,0.476502
588.0,1.29739,576.111,1439.24,1437.71,1.29621,0.479092
600.0,1.31776,576.771,1459.08,1457.54,1.30892,0.491802
612.0,1.29692,577.43,1478.88,1477.33,1.29692,0.479802
624.0,1.29329,578.089,1498.63,1497.08,1.29283,0.475712
636.0,1.2921,578.749,1518.34,1516.77,1.29183,0.474712
648.0,1.292,579.408,1538,1536.43,1.292,0.474882
660.0,1.29497,580.067,1557.62,1556.04,1.29485,0.477732
672.0,1.36854,580.727,1577.19,1575.6,1.29553,0.478412
684.0,1.29271,581.386,1596.72,1595.12,1.29271,0.475592
696.0,1.29311,582.046,1616.21,1614.6,1.29317,0.476052
708.0,1.29554,582.705,1635.65,1634.03,1.29387,0.476752
720.0,1.29587,583.364,1655.04,1653.42,1.2938,0.476682
732.0,1.29517,584.024,1674.4,1672.76,1.29346,0.476342
744.0,1.29598,584.683,1693.71,1692.06,1.29598,0.478862
756.0,1.29631,585.342,1712.97,1711.32,1.29631,0.479192
768.0,1.29672,586.002,1732.2,1730.53,1.29795,0.480832
780.0,1.29493,586.661,1751.38,1749.7,1.29691,0.479792
792.0,1.29797,587.32,1770.51,1768.83,1.29634,0.479222
804.0,1.29453,587.98,1789.61,1787.91,1.29579,0.478672
816.0,1.29657,588.639,1808.66,1806.96,1.29657,0.479452
828.0,1.29977,589.299,1827.66,1825.96,1.29772,0.480602
840.0,1.29575,589.958,1846.63,1844.91,1.29621,0.479092
852.0,1.29791,590.617,1865.55,1863.83,1.29862,0.481502
864.0,1.29745,591.277,1884.43,1882.7,1.29933,0.482212
876.0,1.29858,591.936,1903.27,1901.53,1.29752,0.480402
888.0,1.29857,592.595,1922.07,1920.32,1.2984,0.481282
900.0,1.29506,593.255,1940.83,1939.06,1.29317,0.476052
912.0,1.29332,593.914,1959.54,1957.77,1.29332,0.476202
924.0,1.29099,594.573,1978.21,1976.43,1.29197,0.474852
936.0,1.28628,595.233,1996.84,1995.05,1.2892,0.472082
948.0,1.28679,595.892,2015.43,2013.63,1.28575,0.468632
960.0,1.28156,596.551,2033.98,2032.17,1.28156,0.464442
972.0,1.28167,597.211,2052.49,2050.67,1.28197,0.464852
984.0,1.27808,597.87,2070.95,2069.13,1.27914,0.462022
996.0,1.27936,598.53,2089.38,2087.55,1.27291,0.455792
1008.0,1.27515,599.189,2107.77,2105.93,1.27219,0.455072
1020.0,1.26888,599.848,2126.11,2124.26,1.2705,0.453382
1032.0,1.26689,600.508,2144.42,2142.56,1.26668,0.449562
1044.0,1.27311,601.167,2162.68,2160.81,1.26401,0.446892
1056.0,1.25992,601.826,2180.9,2179.03,1.26011,0.442992
1068.0,1.25932,602.486,2199.09,2197.21,1.25932,0.442202
1080.0,1.25824,603.145,2217.23,2215.34,1.25824,0.441122
1092.0,1.25676,603.804,2235.34,2233.44,1.2551,0.437982
1104.0,1.25341,604.464,2253.41,2251.5,1.25409,0.436972
1116.0,1.25098,605.123,2271.43,2269.51,1.2521,0.434982
1128.0,1.25035,605.783,2289.42,2287.49,1.2488,0.431682
1140.0,1.246,606.442,2307.37,2305.43,1.24764,0.430522
1152.0,1.24467,607.101,2325.28,2323.33,1.24381,0.426692
1164.0,1.24366,607.761,2343.15,2341.19,1.2422,0.425082
1176.0,1.23892,608.42,2360.98,2359.02,1.23938,0.422262
1188.0,1.23803,609.079,2378.77,2376.8,1.23803,0.420912
1200.0,1.23749,609.739,2396.52,2394.55,1.23749,0.420372
1212.0,1.232,610.398,2414.24,2412.26,1.23196,0.414842
1224.0,1.22872,611.057,2431.92,2429.93,1.22773,0.410612
1236.0,1.22338,611.717,2449.56,2447.56,1.22458,0.407462
1248.0,1.2233,612.376,2467.16,2465.15,1.2233,0.406182
1260.0,1.22092,613.036,2484.72,2482.71,1.22092,0.403802
1272.0,1.21508,613.695,2502.25,2500.22,1.21508,0.397962
1284.0,1.2115,614.354,2519.74,2517.7,1.2104,0.393282
1296.0,1.20942,615.014,2537.19,2535.15,1.20749,0.390372
1308.0,1.19941,615.673,2554.6,2552.55,1.20277,0.385652
1320.0,1.20301,616.332,2571.98,2569.92,1.19853,0.381412
1332.0,1.19287,616.992,2589.32,2587.25,1.19287,0.375752
1344.0,1.18992,617.651,2606.62,2604.54,1.1902,0.373082
1356.0,1.18659,618.31,2623.89,2621.8,1.18724,0.370122
1368.0,1.18315,618.97,2641.11,2639.02,1.1831,0.365982
1380.0,1.18296,619.629,2658.31,2656.21,1.18296,0.365842
1392.0,1.18748,620.288,2675.46,2673.35,1.17631,0.359192
1404.0,1.17138,620.948,2692.58,2690.46,1.17356,0.356442
1416.0,1.17187,621.607,2709.66,2707.54,1.17195,0.354832
1428.0,1.1798,622.267,2726.71,2724.58,1.17179,0.354672
1440.0,1.16598,622.926,2743.72,2741.58,1.16598,0.348862
1452.0,1.15917,623.585,2760.69,2758.55,1.16112,0.344002
1464.0,1.15618,624.245,2777.63,2775.48,1.15777,0.340652
1476.0,1.15508,624.904,2794.53,2792.37,1.15508,0.337962
1488.0,1.15102,625.563,2811.4,2809.23,1.1548,0.337682
1500.0,1.14972,626.223,2828.23,2826.05,1.15004,0.332922
1512.0,1.14893,626.882,2845.03,2842.84,1.14947,0.332352
1524.0,1.15078,627.541,2861.79,2859.59,1.15027,0.333152
1536.0,1.15706,628.201,2878.52,2876.31,1.15787,0.340752
1548.0,1.19181,628.86,2895.21,2892.99,1.19019,0.373072
1560.0,1.21564,629.52,2911.86,2909.64,1.21564,0.398522
1572.0,1.19263,630.179,2928.48,2926.25,1.19713,0.380012
1584.0,1.2004,630.838,2945.07,2942.83,1.2004,0.383282
1596.0,1.17003,631.498,2961.62,2959.38,1.16046,0.343342
1608.0,1.15013,632.157,2978.14,2975.89,1.15096,0.333842
1620.0,1.15354,632.816,2994.62,2992.36,1.15354,0.336422
1632.0,1.12718,633.476,3011.07,3008.8,1.12718,0.310062
1644.0,1.10722,634.135,3027.48,3025.21,1.10722,0.290102
1656.0,1.09751,634.794,3043.86,3041.58,1.09694,0.279822
1668.0,1.09034,635.454,3060.21,3057.92,1.09113,0.274012
1680.0,1.08603,636.113,3076.52,3074.22,1.08603,0.268912
1692.0,1.08185,636.772,3092.8,3090.49,1.08185,0.264732
1704.0,1.07588,637.432,3109.04,3106.73,1.07733,0.260212
1716.0,1.07207,638.091,3125.25,3122.93,1.07381,0.256692
1728.0,1.07079,638.751,3141.43,3139.1,1.06953,0.252412
1740.0,1.06888,639.41,3157.57,3155.24,1.06817,0.251052
1752.0,1.06545,640.069,3173.68,3171.34,1.06503,0.247912
1764.0,1.06053,640.729,3189.76,3187.41,1.06093,0.243812
1776.0,1.05835,641.388,3205.81,3203.45,1.05886,0.241742
1788.0,1.05946,642.047,3221.82,3219.45,1.05787,0.240752
1800.0,1.05576,642.707,3237.8,3235.42,1.05576,0.238642
1812.0,1.05255,643.366,3253.74,3251.36,1.05255,0.235432
1824.0,1.04884,644.025,3269.66,3267.27,1.04884,0.231722
1836.0,1.04608,644.685,3285.54,3283.14,1.04517,0.228052
1848.0,1.04494,645.344,3301.39,3298.98,1.04494,0.227822
1860.0,1.04212,646.004,3317.2,3314.79,1.04213,0.225012
1872.0,1.04166,646.663,3332.98,3330.57,1.04166,0.224542
1884.0,1.03573,647.322,3348.74,3346.31,1.03767,0.220552
1896.0,1.03782,647.982,3364.46,3362.02,1.03426,0.217142
1908.0,1.03127,648.641,3380.14,3377.7,1.0325,0.215382
1920.0,1.03096,649.3,3395.8,3393.35,1.03217,0.215052
1932.0,1.03078,649.96,3411.42,3408.97,1.02526,0.208142
1944.0,1.02763,650.619,3427.02,3424.55,1.0214,0.204282
1956.0,1.01484,651.278,3442.58,3440.11,1.01658,0.199462
1968.0,1.01734,651.938,3458.11,3455.63,1.01149,0.194372
1980.0,1.00748,652.597,3473.6,3471.12,1.00687,0.189752
1992.0,1.0046,653.257,3489.07,3486.58,1.00544,0.188322
2004.0,1.00114,653.916,3504.51,3502.01,1.00114,0.184022
2016.0,0.996316,654.575,3519.91,3517.4,0.997066,0.179948
2028.0,0.994383,655.235,3535.28,3532.77,0.99499,0.177872
2040.0,0.995889,655.894,3550.63,3548.1,0.99515,0.178032
2047.0,0.996747,656.279,3559.56,3557.04,0.995451,0.178333