Folder: 2025-diyraman-bio/data/processed/processed_data/2024-09-03 (part 11)

File: 2024-09-03_glycinepowder_n_y_y_solid_1000_0_10.csv
Pixels #,Intensity (a.u.),Wavelength (nm),Raman shift (cm-1),Raman shift (cm-1) adjusted,Filtered Intensity (a.u.),Baselined Filtered Intensity (a.u.)
0.0,0.000467289,543.337,392.223,393.994,0.000265197,0.00025784
13.0,0.00130653,544.052,416.409,418.148,0.00120972,0.00120236
26.0,0.00195439,544.767,440.532,442.24,0.00195439,0.00194703
39.0,0.000553857,545.482,464.591,466.268,0.000537256,0.000529899
52.0,0.000700961,546.197,488.587,490.233,0.000688754,0.000681396
65.0,0.00946306,546.912,512.521,514.136,0.00907119,0.00906383
78.0,0.0108552,547.627,536.392,537.976,0.0117233,0.0117159
91.0,0.00938608,548.342,560.2,561.754,0.00938608,0.00937872
104.0,0.00474955,549.057,583.947,585.47,0.00467611,0.00466875
117.0,0.0012383,549.772,607.632,609.125,0.00252883,0.00252147
130.0,0.0019452,550.487,631.255,632.718,0.0019452,0.00193784
143.0,0.00255711,551.202,654.818,656.25,0.00218049,0.00217313
156.0,0.000467541,551.917,678.319,679.72,0.00178775,0.00178039
169.0,0.00402118,552.632,701.759,703.13,0.00366585,0.00365849
182.0,0.00480423,553.347,725.139,726.48,0.00602414,0.00601678
195.0,0.0127488,554.062,748.458,749.769,0.0131422,0.0131348
208.0,0.0186726,554.777,771.717,772.999,0.018922,0.0189146
221.0,0.0337802,555.491,794.917,796.168,0.0337802,0.0337728
234.0,0.0564457,556.206,818.057,819.278,0.0549239,0.0549165
247.0,0.067418,556.921,841.137,842.329,0.067418,0.0674106
260.0,0.0569519,557.636,864.158,865.321,0.0569519,0.0569445
273.0,0.0839433,558.351,887.12,888.253,0.0790587,0.0790513
286.0,0.010906,559.066,910.024,911.127,0.010906,0.0108986
299.0,0.00377074,559.781,932.869,933.943,0.0059644,0.00595705
312.0,0.00547546,560.496,955.656,956.7,0.00364623,0.00363888
325.0,0.00444473,561.211,978.384,979.4,0.00444473,0.00443738
338.0,0.00319714,561.926,1001.06,1002.04,0.00319714,0.00318979
351.0,0.0124588,562.641,1023.67,1024.63,0.0124588,0.0124515
364.0,0.00885026,563.356,1046.22,1047.15,0.00885026,0.00884291
377.0,0.00326086,564.071,1068.72,1069.62,0.00283034,0.00282299
390.0,0.00670438,564.786,1091.16,1092.03,0.00670438,0.00669703
403.0,0.00296106,565.501,1113.55,1114.39,0.00511606,0.00510871
416.0,0.00416149,566.216,1135.88,1136.69,0.00471888,0.00471153
429.0,0.00313196,566.931,1158.15,1158.93,0.00313196,0.00312462
442.0,0.00536024,567.646,1180.37,1181.12,0.00505799,0.00505065
455.0,0.00696224,568.361,1202.53,1203.25,0.00696224,0.0069549
468.0,0.00326293,569.075,1224.63,1225.33,0.00326293,0.00325559
481.0,0.00199617,569.79,1246.68,1247.35,0.0028971,0.00288976
494.0,0.00303646,570.505,1268.67,1269.31,0.00255113,0.00254379
507.0,0.00454861,571.22,1290.61,1291.22,0.00454861,0.00454127
520.0,0.0327231,571.935,1312.5,1313.08,0.0327231,0.0327158
533.0,0.0155441,572.65,1334.32,1334.88,0.0155441,0.0155368
546.0,0.00216735,573.365,1356.1,1356.63,0.0012091,0.00120176
559.0,0.00394162,574.08,1377.82,1378.32,0.00394162,0.00393428
572.0,0.0165042,574.795,1399.49,1399.96,0.0165042,0.0164969
585.0,0.00321663,575.51,1421.1,1421.54,0.00321663,0.00320929
598.0,0.00449518,576.225,1442.66,1443.07,0.00661351,0.00660617
611.0,0.00231173,576.94,1464.16,1464.55,0.00231173,0.00230439
624.0,0.000421882,577.655,1485.62,1485.98,0.00112488,0.00111754
637.0,0.010697,578.37,1507.01,1507.35,0.010697,0.0106897
650.0,0.000219201,579.085,1528.36,1528.67,0.0012047,0.00119736
663.0,0.00365388,579.8,1549.65,1549.93,0.00427972,0.00427238
676.0,0.00909129,580.515,1570.9,1571.15,0.00775583,0.00774849
689.0,0.0,581.23,1592.09,1592.31,1.34048e-05,6.06855e-06
702.0,0.00240052,581.944,1613.22,1613.42,0.00136053,0.00135319
715.0,0.00120089,582.659,1634.31,1634.48,0.00120089,0.00119356
728.0,0.00382547,583.374,1655.34,1655.48,0.00382547,0.00381814
741.0,0.00450932,584.089,1676.32,1676.44,0.00330952,0.00330219
754.0,0.00624571,584.804,1697.25,1697.34,0.00601824,0.00601091
767.0,0.0035225,585.519,1718.13,1718.2,0.00235922,0.00235189
780.0,0.0,586.234,1738.96,1739,0.00249057,0.00248325
793.0,0.000720763,586.949,1759.74,1759.75,0.00215044,0.00214312
806.0,0.0017234,587.664,1780.47,1780.45,0.0017234,0.00171608
819.0,0.000676038,588.379,1801.14,1801.1,0.000676038,0.000668726
832.0,0.00301161,589.094,1821.77,1821.7,0.00301161,0.0030043
845.0,0.00508266,589.809,1842.35,1842.25,0.00328804,0.00328074
858.0,0.00263278,590.524,1862.87,1862.75,0.00263278,0.00262548
871.0,0.00505014,591.239,1883.35,1883.2,0.00490407,0.00489677
884.0,0.00219842,591.954,1903.78,1903.6,0.00337846,0.00337117
897.0,0.00165153,592.669,1924.16,1923.96,0.00165153,0.00164424
910.0,0.00293569,593.384,1944.49,1944.26,0.00293569,0.0029284
923.0,0.005444,594.099,1964.77,1964.51,0.00463443,0.00462715
936.0,0.0,594.813,1985,1984.72,0.00377452,0.00376724
949.0,0.00304476,595.528,2005.18,2004.88,0.00304476,0.00303748
962.0,0.00110188,596.243,2025.32,2024.98,0.00232384,0.00231657
975.0,0.000638548,596.958,2045.4,2045.05,0.00166071,0.00165344
988.0,0.00149146,597.673,2065.44,2065.06,0.00149146,0.00148419
1001.0,0.00197557,598.388,2085.43,2085.02,0.00544982,0.00544256
1014.0,0.00103161,599.103,2105.38,2104.94,0.0015938,0.00158654
1027.0,0.0027641,599.818,2125.27,2124.81,0.000207039,0.000199785
1040.0,0.00518961,600.533,2145.12,2144.63,0.00342928,0.00342203
1053.0,0.00215857,601.248,2164.92,2164.41,0.00215857,0.00215133
1066.0,0.0,601.963,2184.67,2184.14,0.000557884,0.000550645
1079.0,0.0,602.678,2204.38,2203.82,0.000864979,0.000857745
1092.0,0.000377638,603.393,2224.04,2223.45,0.000560908,0.000553678
1105.0,0.00522193,604.108,2243.65,2243.04,0.00242425,0.00241702
1118.0,0.00365035,604.823,2263.22,2262.58,0.00341803,0.00341081
1131.0,0.00181779,605.538,2282.74,2282.08,0.00181779,0.00181057
1144.0,0.000503037,606.253,2302.22,2301.53,0.00123509,0.00122788
1157.0,0.0,606.968,2321.65,2320.93,0.00106758,0.00106037
1170.0,0.00516502,607.682,2341.03,2340.29,0.00477951,0.00477231
1183.0,0.00363869,608.397,2360.37,2359.6,0.00363869,0.00363149
1196.0,0.00176528,609.112,2379.66,2378.87,0.001748,0.0017408
1209.0,0.00425654,609.827,2398.91,2398.09,0.00367282,0.00366563
1222.0,0.00372107,610.542,2418.11,2417.27,0.00186506,0.00185787
1235.0,0.0025215,611.257,2437.27,2436.4,0.00296862,0.00296144
1248.0,0.00786763,611.972,2456.38,2455.49,0.00399665,0.00398947
1261.0,0.0,612.687,2475.45,2474.53,6.11637e-05,5.39862e-05
1274.0,0.00305536,613.402,2494.47,2493.53,0.00170921,0.00170204
1287.0,0.0,614.117,2513.45,2512.49,0.000882687,0.000875518
1300.0,0.0,614.832,2532.39,2531.4,0.000360876,0.000353712
1313.0,0.0,615.547,2551.28,2550.27,0.000213626,0.000206466
1326.0,0.00224944,616.262,2570.12,2569.09,0.00170157,0.00169441
1339.0,0.00677376,616.977,2588.93,2587.87,0.00387496,0.00386781
1352.0,0.00251543,617.692,2607.69,2606.6,0.00320601,0.00319886
1365.0,0.000650034,618.407,2626.4,2625.3,7.88131e-06,7.38453e-07
1378.0,0.000146856,619.122,2645.08,2643.95,0.00239881,0.00239167
1391.0,0.00533089,619.837,2663.71,2662.55,0.00405749,0.00405035
1404.0,0.00268292,620.551,2682.29,2681.12,0.00268292,0.00267579
1417.0,0.00192057,621.266,2700.84,2699.64,0.0013827,0.00137557
1430.0,9.53689e-05,621.981,2719.34,2718.11,0.00107985,0.00107272
1443.0,0.000648866,622.696,2737.8,2736.55,0.00259308,0.00258596
1456.0,0.00270583,623.411,2756.22,2754.94,0.000776303,0.000769184
1469.0,0.00126338,624.126,2774.59,2773.29,0.00126955,0.00126243
1482.0,0.0,624.841,2792.93,2791.6,0.00110018,0.00109307
1495.0,0.000285115,625.556,2811.22,2809.87,0.00223942,0.00223231
1508.0,0.00583654,626.271,2829.47,2828.1,0.0021094,0.00210229
1521.0,0.000197371,626.986,2847.67,2846.28,0.000197371,0.000190267
1534.0,0.000749088,627.701,2865.84,2864.42,0.000749088,0.000741987
1547.0,0.00477875,628.416,2883.96,2882.53,0.00477875,0.00477165
1560.0,0.00553088,629.131,2902.05,2900.59,0.0052997,0.0052926
1573.0,0.00757434,629.846,2920.09,2918.6,0.00663745,0.00663036
1586.0,0.00156198,630.561,2938.09,2936.58,0.000881209,0.00087412
1599.0,0.00425318,631.276,2956.05,2954.52,0.00425318,0.00424609
1612.0,0.0355508,631.991,2973.97,2972.42,0.0355508,0.0355437
1625.0,0.0,632.706,2991.85,2990.27,0.0,-7.08238e-06
1638.0,0.0150807,633.421,3009.69,3008.09,0.0132697,0.0132626
1651.0,0.0,634.135,3027.49,3025.87,0.0,-7.07925e-06
1664.0,0.0,634.85,3045.25,3043.6,0.000282694,0.000275616
1677.0,0.000838483,635.565,3062.97,3061.3,0.00101933,0.00101225
1690.0,0.000415947,636.28,3080.65,3078.96,0.000415947,0.000408871
1703.0,0.0,636.995,3098.29,3096.57,0.000125124,0.000118049
1716.0,0.0,637.71,3115.89,3114.15,0.0,-7.07574e-06
1729.0,0.000519253,638.425,3133.45,3131.69,0.000286112,0.000279036
1742.0,8.54184e-05,639.14,3150.97,3149.19,0.000669108,0.000662032
1755.0,0.0,639.855,3168.45,3166.65,0.000231592,0.000224517
1768.0,0.000165502,640.57,3185.9,3184.07,0.00101472,0.00100765
1781.0,0.00175719,641.285,3203.3,3201.45,0.00175719,0.00175012
1794.0,0.00213818,642,3220.66,3218.79,0.00213818,0.00213111
1807.0,0.00268201,642.715,3237.99,3236.1,0.00206308,0.00205601
1820.0,0.000668388,643.43,3255.28,3253.36,0.000668388,0.000661314
1833.0,0.00596119,644.145,3272.53,3270.59,0.00247424,0.00246716
1846.0,0.00158915,644.86,3289.74,3287.78,0.000537365,0.000530289
1859.0,0.00141768,645.575,3306.92,3304.93,0.000256846,0.000249769
1872.0,0.000990097,646.29,3324.05,3322.05,0.00116629,0.00115921
1885.0,0.0,647.004,3341.15,3339.12,0.00173169,0.00172461
1898.0,0.0,647.719,3358.21,3356.16,6.1799e-05,5.47188e-05
1911.0,0.0,648.434,3375.23,3373.16,5.86953e-07,-6.49399e-06
1924.0,0.00148103,649.149,3392.22,3390.12,0.00102657,0.00101949
1937.0,0.000134455,649.864,3409.16,3407.05,0.000134455,0.000127372
1950.0,0.000741525,650.579,3426.07,3423.94,0.000979629,0.000972545
1963.0,0.0,651.294,3442.95,3440.79,3.20002e-05,2.49157e-05
1976.0,0.0,652.009,3459.78,3457.6,0.0,-7.08545e-06
1989.0,0.0,652.724,3476.58,3474.38,0.0,-7.08687e-06
2002.0,9.07912e-05,653.439,3493.34,3491.12,9.76577e-05,9.05692e-05
2015.0,0.0,654.154,3510.07,3507.83,0.0,-7.08825e-06
2028.0,0.0,654.869,3526.76,3524.49,0.000325571,0.000318483
2041.0,0.00569014,655.584,3543.41,3541.12,0.00514772,0.00514063
2047.0,0.0,655.914,3551.09,3548.79,0.0,-7.08814e-06

File: 2024-09-03_glycinepowder_n_y_y_solid_1000_0_20.csv
Pixels #,Intensity (a.u.),Wavelength (nm),Raman shift (cm-1),Raman shift (cm-1) adjusted,Filtered Intensity (a.u.),Baselined Filtered Intensity (a.u.)
0.0,0.00256851,543.337,392.223,393.994,0.000727186,0.000723563
13.0,0.00119226,544.052,416.409,418.148,0.00119226,0.00118864
26.0,0.00153961,544.767,440.532,442.24,0.00150073,0.00149711
39.0,0.00114967,545.482,464.591,466.268,0.00120796,0.00120434
52.0,0.000594176,546.197,488.587,490.233,0.000972246,0.000968624
65.0,0.0101792,546.912,512.521,514.136,0.00908241,0.00907879
78.0,0.0107927,547.627,536.392,537.976,0.0107927,0.0107891
91.0,0.00982688,548.342,560.2,561.754,0.00982688,0.00982326
104.0,0.00406496,549.057,583.947,585.47,0.00406496,0.00406134
117.0,0.0024021,549.772,607.632,609.125,0.00260122,0.0025976
130.0,0.00184359,550.487,631.255,632.718,0.00184359,0.00183997
143.0,0.00252254,551.202,654.818,656.25,0.0023776,0.00237398
156.0,0.000435828,551.917,678.319,679.72,0.00114855,0.00114493
169.0,0.00452798,552.632,701.759,703.13,0.004006,0.00400239
182.0,0.00424303,553.347,725.139,726.48,0.00596686,0.00596325
195.0,0.0106092,554.062,748.458,749.769,0.0114771,0.0114735
208.0,0.0202037,554.777,771.717,772.999,0.0204778,0.0204742
221.0,0.0311062,555.491,794.917,796.168,0.0311062,0.0311026
234.0,0.0506745,556.206,818.057,819.278,0.0506745,0.0506709
247.0,0.0635971,556.921,841.137,842.329,0.0635971,0.0635935
260.0,0.0544857,557.636,864.158,865.321,0.0535674,0.0535638
273.0,0.0778358,558.351,887.12,888.253,0.0754904,0.0754868
286.0,0.00858476,559.066,910.024,911.127,0.00858476,0.00858116
299.0,0.00439539,559.781,932.869,933.943,0.00412379,0.00412019
312.0,0.00120929,560.496,955.656,956.7,0.00143395,0.00143035
325.0,0.002723,561.211,978.384,979.4,0.002723,0.0027194
338.0,0.00598226,561.926,1001.06,1002.04,0.00439944,0.00439585
351.0,0.0103749,562.641,1023.67,1024.63,0.0103749,0.0103713
364.0,0.00735763,563.356,1046.22,1047.15,0.00735763,0.00735404
377.0,0.00386164,564.071,1068.72,1069.62,0.00386164,0.00385805
390.0,0.00406967,564.786,1091.16,1092.03,0.00389651,0.00389292
403.0,0.00354721,565.501,1113.55,1114.39,0.00354721,0.00354362
416.0,0.00299931,566.216,1135.88,1136.69,0.00311436,0.00311078
429.0,0.00483637,566.931,1158.15,1158.93,0.00444903,0.00444545
442.0,0.0070222,567.646,1180.37,1181.12,0.00527502,0.00527144
455.0,0.00474714,568.361,1202.53,1203.25,0.00547462,0.00547104
468.0,0.00618999,569.075,1224.63,1225.33,0.00552146,0.00551788
481.0,0.00154009,569.79,1246.68,1247.35,0.000944165,0.000940587
494.0,0.00552798,570.505,1268.67,1269.31,0.00330764,0.00330406
507.0,0.00288416,571.22,1290.61,1291.22,0.00288416,0.00288058
520.0,0.0246506,571.935,1312.5,1313.08,0.0246506,0.024647
533.0,0.0151876,572.65,1334.32,1334.88,0.0151876,0.015184
546.0,0.00206916,573.365,1356.1,1356.63,0.000865926,0.000862354
559.0,0.00407871,574.08,1377.82,1378.32,0.00330243,0.00329886
572.0,0.0148922,574.795,1399.49,1399.96,0.0148922,0.0148886
585.0,0.00621698,575.51,1421.1,1421.54,0.00621698,0.00621341
598.0,0.00781206,576.225,1442.66,1443.07,0.00727058,0.00726701
611.0,0.00410552,576.94,1464.16,1464.55,0.00410552,0.00410195
624.0,0.00107194,577.655,1485.62,1485.98,0.00107194,0.00106837
637.0,0.0083229,578.37,1507.01,1507.35,0.0083229,0.00831933
650.0,0.00425082,579.085,1528.36,1528.67,0.00337895,0.00337538
663.0,0.00112755,579.8,1549.65,1549.93,0.00150673,0.00150317
676.0,0.0119265,580.515,1570.9,1571.15,0.00761527,0.00761171
689.0,0.00036856,581.23,1592.09,1592.31,0.000455863,0.000452301
702.0,0.00414794,581.944,1613.22,1613.42,0.0020648,0.00206124
715.0,0.00437287,582.659,1634.31,1634.48,0.00400475,0.00400119
728.0,0.00389089,583.374,1655.34,1655.48,0.00386018,0.00385663
741.0,0.00468315,584.089,1676.32,1676.44,0.00418746,0.00418391
754.0,0.00110132,584.804,1697.25,1697.34,0.00110132,0.00109777
767.0,0.00291491,585.519,1718.13,1718.2,0.00235525,0.0023517
780.0,0.000353844,586.234,1738.96,1739,0.00240759,0.00240405
793.0,0.0,586.949,1759.74,1759.75,0.000961175,0.000957634
806.0,0.000730922,587.664,1780.47,1780.45,0.000730922,0.000727384
819.0,0.0,588.379,1801.14,1801.1,0.000354009,0.000350475
832.0,0.00259024,589.094,1821.77,1821.7,0.00259024,0.00258671
845.0,0.00471279,589.809,1842.35,1842.25,0.00457503,0.0045715
858.0,0.00346174,590.524,1862.87,1862.75,0.00234973,0.00234621
871.0,0.00461932,591.239,1883.35,1883.2,0.0036598,0.00365628
884.0,0.00662557,591.954,1903.78,1903.6,0.006465,0.00646148
897.0,0.00130272,592.669,1924.16,1923.96,0.00255511,0.0025516
910.0,0.0021617,593.384,1944.49,1944.26,0.00145065,0.00144714
923.0,0.000958989,594.099,1964.77,1964.51,0.00144345,0.00143995
936.0,0.0024524,594.813,1985,1984.72,0.00124632,0.00124282
949.0,0.0,595.528,2005.18,2004.88,0.000513069,0.000509572
962.0,0.00228878,596.243,2025.32,2024.98,0.00228878,0.00228529
975.0,0.00101006,596.958,2045.4,2045.05,0.00128908,0.00128559
988.0,0.0,597.673,2065.44,2065.06,0.000360113,0.000356627
1001.0,0.000119977,598.388,2085.43,2085.02,0.00139193,0.00138845
1014.0,0.000577149,599.103,2105.38,2104.94,0.000577149,0.000573669
1027.0,0.000724874,599.818,2125.27,2124.81,0.00148176,0.00147828
1040.0,0.000835578,600.533,2145.12,2144.63,0.000418707,0.000415234
1053.0,0.00291502,601.248,2164.92,2164.41,0.001937,0.00193353
1066.0,0.0,601.963,2184.67,2184.14,2.327e-05,1.98041e-05
1079.0,0.0056631,602.678,2204.38,2203.82,0.00294265,0.00293919
1092.0,0.0,603.393,2224.04,2223.45,0.000589532,0.000586073
1105.0,0.0026134,604.108,2243.65,2243.04,0.00134571,0.00134225
1118.0,0.00534777,604.823,2263.22,2262.58,0.00485263,0.00484918
1131.0,0.0,605.538,2282.74,2282.08,0.00026894,0.000265491
1144.0,0.00151657,606.253,2302.22,2301.53,0.0018593,0.00185585
1157.0,0.00375654,606.968,2321.65,2320.93,0.00375654,0.0037531
1170.0,0.000436566,607.682,2341.03,2340.29,0.00174326,0.00173982
1183.0,0.0,608.397,2360.37,2359.6,0.0,-3.43763e-06
1196.0,0.00247317,609.112,2379.66,2378.87,0.0021591,0.00215566
1209.0,0.00248206,609.827,2398.91,2398.09,0.000121812,0.000118379
1222.0,0.00425235,610.542,2418.11,2417.27,0.00402103,0.0040176
1235.0,0.000571367,611.257,2437.27,2436.4,0.00189213,0.0018887
1248.0,0.00425552,611.972,2456.38,2455.49,0.00233345,0.00233003
1261.0,0.00104982,612.687,2475.45,2474.53,0.00104982,0.0010464
1274.0,0.0,613.402,2494.47,2493.53,0.000707226,0.000703806
1287.0,0.00441196,614.117,2513.45,2512.49,0.0028064,0.00280298
1300.0,0.000732639,614.832,2532.39,2531.4,0.000732639,0.000729223
1313.0,0.00216306,615.547,2551.28,2550.27,0.000613127,0.000609714
1326.0,0.00529825,616.262,2570.12,2569.09,0.00439766,0.00439425
1339.0,0.00472046,616.977,2588.93,2587.87,0.00120758,0.00120417
1352.0,0.00345941,617.692,2607.69,2606.6,0.00345941,0.003456
1365.0,0.0,618.407,2626.4,2625.3,0.0,-3.40613e-06
1378.0,0.0,619.122,2645.08,2643.95,0.000698176,0.000694771
1391.0,0.000423056,619.837,2663.71,2662.55,0.000193885,0.000190481
1404.0,0.00113969,620.551,2682.29,2681.12,0.00113969,0.00113629
1417.0,0.0,621.266,2700.84,2699.64,0.000368718,0.000365316
1430.0,0.00240289,621.981,2719.34,2718.11,0.00240289,0.00239949
1443.0,0.00189371,622.696,2737.8,2736.55,0.00149661,0.00149321
1456.0,0.00269281,623.411,2756.22,2754.94,0.00149552,0.00149212
1469.0,0.000939193,624.126,2774.59,2773.29,0.000939193,0.000935794
1482.0,0.00111675,624.841,2792.93,2791.6,0.00111675,0.00111335
1495.0,0.0,625.556,2811.22,2809.87,0.0,-3.39828e-06
1508.0,0.000975212,626.271,2829.47,2828.1,0.00039408,0.000390682
1521.0,0.0016902,626.986,2847.67,2846.28,0.000795758,0.00079236
1534.0,0.0,627.701,2865.84,2864.42,0.0,-3.3976e-06
1547.0,0.0014992,628.416,2883.96,2882.53,0.0014992,0.0014958
1560.0,0.00260363,629.131,2902.05,2900.59,0.00260363,0.00260023
1573.0,0.00326121,629.846,2920.09,2918.6,0.00294015,0.00293675
1586.0,0.0,630.561,2938.09,2936.58,0.000174032,0.000170635
1599.0,0.00167921,631.276,2956.05,2954.52,0.00232174,0.00231834
1612.0,0.0403908,631.991,2973.97,2972.42,0.0403908,0.0403874
1625.0,0.0,632.706,2991.85,2990.27,0.0,-3.39727e-06
1638.0,0.0162926,633.421,3009.69,3008.09,0.0158896,0.0158862
1651.0,0.0,634.135,3027.49,3025.87,0.0,-3.39776e-06
1664.0,0.000408694,634.85,3045.25,3043.6,0.000408694,0.000405296
1677.0,0.0,635.565,3062.97,3061.3,0.000854758,0.000851359
1690.0,0.000977109,636.28,3080.65,3078.96,0.000977109,0.000973709
1703.0,5.92277e-05,636.995,3098.29,3096.57,5.92277e-05,5.5827e-05
1716.0,0.0,637.71,3115.89,3114.15,0.0,-3.40111e-06
1729.0,0.00240123,638.425,3133.45,3131.69,0.00133429,0.00133089
1742.0,0.0,639.14,3150.97,3149.19,0.000566862,0.00056346
1755.0,7.71457e-05,639.855,3168.45,3166.65,7.71457e-05,7.37426e-05
1768.0,0.0,640.57,3185.9,3184.07,0.000246899,0.000243496
1781.0,0.000874633,641.285,3203.3,3201.45,0.000874633,0.00087123
1794.0,0.00230391,642,3220.66,3218.79,0.00141248,0.00140908
1807.0,0.000553012,642.715,3237.99,3236.1,0.0,-3.40212e-06
1820.0,0.00098497,643.43,3255.28,3253.36,0.00098497,0.000981568
1833.0,0.00280412,644.145,3272.53,3270.59,0.000913567,0.000910165
1846.0,0.00117619,644.86,3289.74,3287.78,0.00102867,0.00102527
1859.0,0.0,645.575,3306.92,3304.93,5.49325e-05,5.15298e-05
1872.0,0.00227651,646.29,3324.05,3322.05,0.00133607,0.00133267
1885.0,0.0,647.004,3341.15,3339.12,0.00045728,0.000453878
1898.0,0.00117675,647.719,3358.21,3356.16,0.000790519,0.000787118
1911.0,0.00273442,648.434,3375.23,3373.16,0.00164061,0.00163721
1924.0,0.00213917,649.149,3392.22,3390.12,0.00144032,0.00143692
1937.0,0.00109042,649.864,3409.16,3407.05,0.000930553,0.000927156
1950.0,0.000579509,650.579,3426.07,3423.94,0.000482782,0.000479386
1963.0,0.0,651.294,3442.95,3440.79,0.000183871,0.000180475
1976.0,0.0,652.009,3459.78,3457.6,0.000931939,0.000928544
1989.0,0.000926821,652.724,3476.58,3474.38,0.000926821,0.000923426
2002.0,0.000114729,653.439,3493.34,3491.12,0.000120165,0.000116771
2015.0,0.000343996,654.154,3510.07,3507.83,0.000343996,0.000340602
2028.0,0.0,654.869,3526.76,3524.49,0.000112535,0.000109141
2041.0,0.00365365,655.584,3543.41,3541.12,0.002689,0.00268561
2047.0,0.0,655.914,3551.09,3548.79,0.0,-3.39348e-06