Folder: 2025-diyraman-bio/data/processed/processed_data/2024-10-11

Note: README.md
# DIY Raman spectroscopy for biological research

[![run with conda](https://img.shields.io/badge/run%20with-conda-3EB049?labelColor=000000&logo=anaconda)](https://docs.conda.io/projects/miniconda/en/latest/)

## Purpose

This repository accompanies the pub, "DIY Raman spectroscopy for biological research." It contains the data acquired and analyzed in this effort, Jupyter notebooks for calibration and figure generation, and a summary of data from the spectral library.

## Installation and Setup

This repository uses conda to manage software environments and installations. You can find operating system-specific instructions for installing miniconda [here](https://docs.conda.io/projects/miniconda/en/latest/). After installing conda and [mamba](https://mamba.readthedocs.io/en/latest/), run the following command to create the pipeline run environment.

```{bash}
TODO: Replace <NAME> with the name of your environment
mamba env create -n <NAME> --file envs/dev.yml
conda activate <NAME>
```

<details><summary>Developer Notes (click to expand/collapse)</summary>

1. Install your pre-commit hooks:

    ```{bash}
    pre-commit install
    ```

    This installs the pre-commit hooks defined in your config (`./.pre-commit-config.yaml`).

2. Export your conda environment before sharing:

    As your project develops, the number of dependencies in your environment may increase. Whenever you install new dependencies (using either `pip install` or `mamba install`), you should update the environment file using the following command.

    ```{bash}
    conda env export --from-history --no-builds > envs/dev.yml
    ```

    `--from-history` only exports packages that were explicitly added by you (e.g., the packages you installed with `pip` or `mamba`) and `--no-builds` removes build specification from the exported packages to increase portability between different platforms.
</details>

## Data

The data shared here is collected on the DIY spontaneous Raman system at Arcadia Science, which is the OpenRaman Starter Edition (532 nm excitation), originally created by Luc B (https://www.open-raman.org/about/). The input files are the raw data in CSV format collected from a range of biological research samples that are in the Arcadia spectral library and calibration standards. The outputs include calibration equations for each acquisition day, calibrated data with additional pre-processing, quick look graphs for each sample's data, and performance metrics for the system. 

## Overview

### Description of the folder structure

* [data/](./data/): Data for each sample presented in the pub. It contains folders for raw data (meaning as acquired on the spectrometer) and processed (meaning calibrated or otherwise modified) These are organized into subfolders for each date. 
* [notebooks/](./notebooks/): Jupyter notebooks for gnenerating calibration correction equations and plotting processed data to generate the figures shown in the pub.
* [scripts/](./scripts/): Python scr

File: 2024-10-11_1Mmagnesiumsulfateheptahydratesolution_n_n_n_solid_10000_0_5.csv
Pixels #,Intensity (a.u.),Wavelength (nm),Raman shift (cm-1),Raman shift (cm-1) adjusted,Filtered Intensity (a.u.),Baselined Filtered Intensity (a.u.)
0.0,0.787214,543.803,407.968,406.929,0.786672,-0.00496408
13.0,0.786694,544.517,432.091,431.041,0.788052,-0.00358445
26.0,0.785831,545.231,456.151,455.089,0.785831,-0.00580649
39.0,0.817653,545.946,480.148,479.075,0.788412,-0.00322732
52.0,0.790311,546.66,504.082,502.998,0.788992,-0.00264976
65.0,0.78825,547.374,527.954,526.858,0.788395,-0.00324967
78.0,0.789779,548.088,551.763,550.656,0.788457,-0.00319106
91.0,0.795555,548.803,575.511,574.393,0.790535,-0.00111686
104.0,0.789574,549.517,599.197,598.067,0.790887,-0.000768996
117.0,0.788563,550.231,622.821,621.68,0.789717,-0.00194338
130.0,0.790061,550.946,646.384,645.232,0.790882,-0.000783053
143.0,0.791552,551.66,669.886,668.723,0.791307,-0.000362985
156.0,0.791017,552.374,693.327,692.153,0.791017,-0.000658119
169.0,0.791048,553.089,716.708,715.523,0.791048,-0.000632406
182.0,0.79293,553.803,740.028,738.832,0.79293,0.00124416
195.0,0.793529,554.517,763.289,762.082,0.793529,0.00183778
208.0,0.792759,555.232,786.489,785.271,0.793759,0.00206255
221.0,0.797438,555.946,809.63,808.401,0.796903,0.00520145
234.0,0.799017,556.66,832.711,831.472,0.799057,0.00735036
247.0,0.800952,557.374,855.733,854.483,0.799061,0.00734927
260.0,0.797815,558.089,878.697,877.435,0.796416,0.00469918
273.0,0.805212,558.803,901.601,900.329,0.798137,0.00641509
286.0,0.796822,559.517,924.448,923.165,0.795782,0.00405499
299.0,0.806603,560.232,947.235,945.942,0.799248,0.00751593
312.0,0.822765,560.946,969.965,968.661,0.837983,0.0462459
325.0,0.823114,561.66,992.637,991.322,0.823114,0.0313718
338.0,0.798161,562.375,1015.25,1013.93,0.797321,0.00557375
351.0,0.797894,563.089,1037.81,1036.47,0.795936,0.0041837
364.0,0.794949,563.803,1060.31,1058.96,0.798007,0.00624969
377.0,0.79781,564.518,1082.75,1081.39,0.796705,0.00494269
390.0,0.799105,565.232,1105.14,1103.77,0.798209,0.00644169
403.0,0.79793,565.946,1127.47,1126.09,0.79783,0.00605769
416.0,0.793796,566.66,1149.74,1148.35,0.795416,0.00363868
429.0,0.794469,567.375,1171.96,1170.56,0.795617,0.00383472
442.0,0.794716,568.089,1194.12,1192.71,0.794959,0.00317181
455.0,0.794664,568.803,1216.23,1214.81,0.795703,0.00391099
468.0,0.794007,569.518,1238.28,1236.85,0.794007,0.00221023
481.0,0.794547,570.232,1260.27,1258.83,0.794547,0.00274561
494.0,0.811241,570.946,1282.21,1280.76,0.795523,0.00371711
507.0,0.792473,571.661,1304.1,1302.63,0.793583,0.00177269
520.0,0.795459,572.375,1325.93,1324.45,0.795459,0.00364441
533.0,0.792688,573.089,1347.7,1346.22,0.79344,0.00162126
546.0,0.794092,573.804,1369.43,1367.93,0.794092,0.0022692
559.0,0.794043,574.518,1391.09,1389.59,0.794088,0.00226128
572.0,0.792533,575.232,1412.71,1411.19,0.792533,0.000702535
585.0,0.810228,575.946,1434.27,1432.74,0.794251,0.00241694
598.0,0.795128,576.661,1455.78,1454.24,0.793983,0.00214546
611.0,0.796718,577.375,1477.23,1475.69,0.794324,0.00248308
624.0,0.797113,578.089,1498.63,1497.08,0.796178,0.0043338
637.0,0.794184,578.804,1519.98,1518.41,0.793671,0.00182364
650.0,0.793944,579.518,1541.27,1539.7,0.793944,0.00209368
663.0,0.79572,580.232,1562.52,1560.93,0.795136,0.00328288
676.0,0.793688,580.947,1583.71,1582.11,0.794263,0.00240715
689.0,0.795539,581.661,1604.85,1603.24,0.795706,0.00384754
702.0,0.802435,582.375,1625.93,1624.32,0.79587,0.00400898
715.0,0.798087,583.09,1646.97,1645.34,0.797352,0.00548843
728.0,0.79568,583.804,1667.95,1666.32,0.796881,0.00501489
741.0,0.795877,584.518,1688.88,1687.24,0.796712,0.00484334
754.0,0.796721,585.232,1709.77,1708.11,0.795935,0.00406384
767.0,0.79401,585.947,1730.6,1728.93,0.79401,0.00213648
780.0,0.792323,586.661,1751.38,1749.7,0.792584,0.000708294
793.0,0.791803,587.375,1772.1,1770.42,0.793639,0.00176122
806.0,0.791306,588.09,1792.78,1791.09,0.792078,0.000198196
819.0,0.79174,588.804,1813.41,1811.71,0.79174,-0.000141819
832.0,0.791325,589.518,1833.99,1832.28,0.791468,-0.000415805
845.0,0.798534,590.233,1854.52,1852.8,0.796158,0.00427224
858.0,0.792039,590.947,1875,1873.27,0.792039,0.00015132
871.0,0.79213,591.661,1895.43,1893.69,0.79363,0.00174047
884.0,0.793827,592.376,1915.81,1914.06,0.793047,0.00115572
897.0,0.793237,593.09,1936.14,1934.38,0.792621,0.000728035
910.0,0.793718,593.804,1956.42,1954.65,0.793459,0.00156439
923.0,0.792544,594.518,1976.66,1974.88,0.792944,0.00104781
936.0,0.789926,595.233,1996.84,1995.05,0.792947,0.00104939
949.0,0.799214,595.947,2016.98,2015.18,0.793561,0.00166204
962.0,0.795514,596.661,2037.07,2035.26,0.792331,0.000430767
975.0,0.797847,597.376,2057.11,2055.29,0.793994,0.0020925
988.0,0.792879,598.09,2077.1,2075.27,0.793419,0.0015163
1001.0,0.793346,598.804,2097.05,2095.21,0.793346,0.00144215
1014.0,0.791755,599.519,2116.94,2115.1,0.791755,-0.00014991
1027.0,0.793959,600.233,2136.79,2134.94,0.793959,0.0020531
1040.0,0.798101,600.947,2156.6,2154.73,0.793246,0.00133927
1053.0,0.792596,601.662,2176.35,2174.48,0.792708,0.000800485
1066.0,0.792455,602.376,2196.06,2194.18,0.792455,0.000546764
1079.0,0.795309,603.09,2215.72,2213.83,0.792132,0.000223204
1092.0,0.793339,603.804,2235.34,2233.44,0.79267,0.000760778
1105.0,0.795433,604.519,2254.91,2253,0.792673,0.000763368
1118.0,0.796215,605.233,2274.43,2272.51,0.796215,0.00430501
1131.0,0.792671,605.947,2293.91,2291.98,0.79255,0.000639695
1144.0,0.795147,606.662,2313.34,2311.4,0.792941,0.00103047
1157.0,0.79207,607.376,2332.73,2330.78,0.794561,0.00265033
1170.0,0.790953,608.09,2352.07,2350.11,0.79101,-0.000900759
1183.0,0.794406,608.805,2371.36,2369.4,0.790712,-0.00119883
1196.0,0.793517,609.519,2390.61,2388.64,0.794063,0.00215215
1209.0,0.792447,610.233,2409.82,2407.83,0.792205,0.000294224
1222.0,0.831622,610.948,2428.97,2426.98,0.791792,-0.000118714
1235.0,0.791412,611.662,2448.09,2446.09,0.791821,-8.97239e-05
1248.0,0.792105,612.376,2467.16,2465.15,0.793781,0.0018702
1261.0,0.795383,613.09,2486.19,2484.17,0.790481,-0.00142986
1274.0,0.790803,613.805,2505.17,2503.14,0.791611,-0.000299935
1287.0,0.80902,614.519,2524.1,2522.07,0.79208,0.000168904
1300.0,0.791911,615.233,2543,2540.95,0.791911,-3.43494e-07
1313.0,0.790531,615.948,2561.85,2559.79,0.791161,-0.000750607
1326.0,0.792977,616.662,2580.65,2578.59,0.791617,-0.000294946
1339.0,0.792594,617.376,2599.42,2597.34,0.792594,0.000681646
1352.0,0.791938,618.091,2618.13,2616.05,0.791938,2.52064e-05
1365.0,0.790308,618.805,2636.81,2634.72,0.790549,-0.00136422
1378.0,0.793903,619.519,2655.44,2653.34,0.793175,0.00126129
1391.0,0.790755,620.234,2674.03,2671.93,0.794032,0.00211783
1404.0,0.788432,620.948,2692.58,2690.46,0.79089,-0.00102466
1417.0,0.793064,621.662,2711.08,2708.96,0.793064,0.00114875
1430.0,0.792895,622.376,2729.55,2727.41,0.792895,0.000979167
1443.0,0.793024,623.091,2747.97,2745.82,0.79324,0.00132356
1456.0,0.792315,623.805,2766.34,2764.19,0.792315,0.000397987
1469.0,0.791661,624.519,2784.68,2782.52,0.791134,-0.000783668
1482.0,0.790802,625.234,2802.97,2800.8,0.791025,-0.000893452
1495.0,0.792124,625.948,2821.22,2819.05,0.791822,-9.72604e-05
1508.0,0.795132,626.662,2839.43,2837.25,0.792887,0.000966926
1521.0,0.793068,627.377,2857.6,2855.41,0.792375,0.000454123
1534.0,0.791583,628.091,2875.73,2873.53,0.794027,0.00210546
1547.0,0.792672,628.805,2893.82,2891.61,0.794878,0.00295601
1560.0,0.794118,629.52,2911.86,2909.64,0.794751,0.00282873
1573.0,0.804115,630.234,2929.87,2927.64,0.799229,0.00730664
1586.0,0.801513,630.948,2947.83,2945.59,0.798438,0.00651564
1599.0,0.798082,631.662,2965.75,2963.51,0.799616,0.00769364
1612.0,0.799325,632.377,2983.63,2981.38,0.799337,0.00741464
1625.0,0.803933,633.091,3001.48,2999.21,0.804536,0.0126136
1638.0,0.806275,633.805,3019.28,3017.01,0.806275,0.0143526
1651.0,0.810823,634.52,3037.04,3034.76,0.810823,0.0189006
1664.0,0.813435,635.234,3054.76,3052.47,0.816047,0.0241246
1677.0,0.818367,635.948,3072.44,3070.15,0.819932,0.0280096
1690.0,0.829985,636.663,3090.09,3087.78,0.828675,0.0367526
1703.0,0.835924,637.377,3107.69,3105.38,0.835924,0.0440016
1716.0,0.844219,638.091,3125.25,3122.93,0.844939,0.0530166
1729.0,0.854298,638.806,3142.78,3140.45,0.854298,0.0623756
1742.0,0.862176,639.52,3160.26,3157.92,0.864605,0.0726826
1755.0,0.872722,640.234,3177.71,3175.36,0.873275,0.0813526
1768.0,0.882874,640.948,3195.11,3192.76,0.883034,0.0911116
1781.0,0.890661,641.663,3212.48,3210.12,0.890661,0.0987386
1794.0,0.89604,642.377,3229.81,3227.44,0.89604,0.104118
1807.0,0.902286,643.091,3247.1,3244.72,0.902286,0.110364
1820.0,0.904317,643.806,3264.36,3261.97,0.903963,0.112041
1833.0,0.905599,644.52,3281.57,3279.18,0.903783,0.111861
1846.0,0.921214,645.234,3298.75,3296.34,0.909344,0.117422
1859.0,0.908783,645.949,3315.88,3313.47,0.910599,0.118677
1872.0,0.914209,646.663,3332.98,3330.57,0.912226,0.120304
1885.0,0.917489,647.377,3350.05,3347.62,0.917489,0.125567
1898.0,0.923462,648.092,3367.07,3364.64,0.920019,0.128097
1911.0,0.923659,648.806,3384.06,3381.62,0.923659,0.131737
1924.0,0.925485,649.52,3401.01,3398.56,0.9244,0.132478
1937.0,0.924311,650.234,3417.92,3415.47,0.925476,0.133554
1950.0,0.923545,650.949,3434.8,3432.33,0.923885,0.131963
1963.0,0.916824,651.663,3451.64,3449.16,0.917863,0.125941
1976.0,0.910217,652.377,3468.44,3465.96,0.911034,0.119112
1989.0,0.902465,653.092,3485.21,3482.72,0.903635,0.111713
2002.0,0.890741,653.806,3501.93,3499.44,0.892515,0.100593
2015.0,0.883716,654.52,3518.63,3516.12,0.882601,0.0906786
2028.0,0.872054,655.235,3535.28,3532.77,0.871261,0.0793386
2041.0,0.864093,655.949,3551.9,3549.38,0.864082,0.0721596
2047.0,0.860437,656.279,3559.56,3557.04,0.859018,0.0670956

File: 2024-10-11_calciumsulfatepowder_n_n_n_solid_10000_0_5.csv
Pixels #,Intensity (a.u.),Wavelength (nm),Raman shift (cm-1),Raman shift (cm-1) adjusted,Filtered Intensity (a.u.),Baselined Filtered Intensity (a.u.)
0.0,0.795472,543.803,407.968,406.929,0.795472,-0.00815234
12.0,0.800327,544.462,430.238,429.188,0.794862,-0.00876293
24.0,0.793184,545.121,452.454,451.393,0.794051,-0.00957559
36.0,0.794751,545.781,474.616,473.545,0.795712,-0.00791745
48.0,0.799424,546.44,496.725,495.643,0.797913,-0.0057203
60.0,0.800742,547.099,518.78,517.688,0.798082,-0.00555594
72.0,0.799626,547.759,540.782,539.68,0.799626,-0.00401717
84.0,0.799928,548.418,562.732,561.619,0.799857,-0.00379196
96.0,0.800402,549.078,584.628,583.506,0.800402,-0.00325311
108.0,0.802043,549.737,606.472,605.339,0.801598,-0.00206363
120.0,0.800333,550.396,628.264,627.121,0.801444,-0.00222435
132.0,0.802702,551.056,650.004,648.85,0.800558,-0.00311734
144.0,0.803077,551.715,671.691,670.528,0.803337,-0.0003458
156.0,0.800589,552.374,693.327,692.153,0.79919,-0.00450052
168.0,0.799879,553.034,714.912,713.727,0.800283,-0.00341561
180.0,0.801985,553.693,736.444,735.25,0.80156,-0.00214719
192.0,0.804264,554.352,757.926,756.722,0.801763,-0.00195304
204.0,0.803461,555.012,779.357,778.142,0.803461,-0.00026407
216.0,0.807687,555.671,800.737,799.512,0.807687,0.00395286
228.0,0.809305,556.33,822.066,820.831,0.809827,0.00608422
240.0,0.812127,556.99,843.344,842.1,0.814112,0.0103615
252.0,0.815677,557.649,864.572,863.318,0.816142,0.0123849
264.0,0.81598,558.309,885.751,884.486,0.817812,0.0140492
276.0,0.819185,558.968,906.879,905.604,0.818294,0.0145259
288.0,0.816783,559.627,927.957,926.673,0.818499,0.0147255
300.0,0.821366,560.287,948.986,947.691,0.82149,0.0177112
312.0,0.820329,560.946,969.965,968.661,0.821569,0.0177848
324.0,0.832368,561.605,990.895,989.581,0.832422,0.0286325
336.0,0.988052,562.265,1011.78,1010.45,0.988052,0.184257
348.0,0.822272,562.924,1032.61,1031.27,0.823479,0.0196788
360.0,0.822991,563.583,1053.39,1052.05,0.822167,0.0183615
372.0,0.822696,564.243,1074.13,1072.77,0.822833,0.0190222
384.0,0.824043,564.902,1094.81,1093.45,0.824043,0.0202268
396.0,0.832981,565.562,1115.45,1114.08,0.831899,0.0280775
408.0,0.865233,566.221,1136.04,1134.66,0.860567,0.0567401
420.0,0.826422,566.88,1156.58,1155.19,0.826337,0.0225048
432.0,0.825241,567.54,1177.08,1175.68,0.825241,0.0214035
444.0,0.822948,568.199,1197.52,1196.11,0.82093,0.0170871
456.0,0.822826,568.858,1217.92,1216.5,0.822826,0.0189778
468.0,0.821173,569.518,1238.28,1236.85,0.821269,0.0174155
480.0,0.821602,570.177,1258.58,1257.14,0.822879,0.0190201
492.0,0.821711,570.836,1278.84,1277.39,0.821924,0.0180598
504.0,0.820592,571.496,1299.05,1297.59,0.821981,0.0181115
516.0,0.821898,572.155,1319.22,1317.75,0.822993,0.0191181
528.0,0.823205,572.815,1339.33,1337.86,0.823248,0.0193678
540.0,0.822078,573.474,1359.41,1357.92,0.822286,0.0184004
552.0,0.827369,574.133,1379.43,1377.94,0.823537,0.0196461
564.0,0.822084,574.793,1399.41,1397.91,0.82277,0.0188738
576.0,0.825149,575.452,1419.35,1417.83,0.823148,0.0192464
588.0,0.825364,576.111,1439.24,1437.71,0.82257,0.0186631
600.0,0.831155,576.771,1459.08,1457.54,0.824604,0.0206918
612.0,0.826124,577.43,1478.88,1477.33,0.826124,0.0222064
624.0,0.827067,578.089,1498.63,1497.08,0.826556,0.0226331
636.0,0.824735,578.749,1518.34,1516.77,0.824712,0.0207837
648.0,0.824016,579.408,1538,1536.43,0.823775,0.0198414
660.0,0.824516,580.067,1557.62,1556.04,0.825432,0.0214931
672.0,0.901029,580.727,1577.19,1575.6,0.824502,0.0205577
684.0,0.824428,581.386,1596.72,1595.12,0.824963,0.0210134
696.0,0.824472,582.046,1616.21,1614.6,0.824472,0.0205171
708.0,0.828794,582.705,1635.65,1634.03,0.826732,0.0227717
720.0,0.827519,583.364,1655.04,1653.42,0.826878,0.0229124
732.0,0.827641,584.024,1674.4,1672.76,0.826184,0.022213
744.0,0.826319,584.683,1693.71,1692.06,0.826319,0.0223427
756.0,0.827829,585.342,1712.97,1711.32,0.827829,0.0238474
768.0,0.827798,586.002,1732.2,1730.53,0.827077,0.02309
780.0,0.825831,586.661,1751.38,1749.7,0.82606,0.0220677
792.0,0.828291,587.32,1770.51,1768.83,0.827869,0.0238714
804.0,0.827755,587.98,1789.61,1787.91,0.826731,0.022728
816.0,0.828193,588.639,1808.66,1806.96,0.827883,0.0238747
828.0,0.82966,589.299,1827.66,1825.96,0.828003,0.0239893
840.0,0.826668,589.958,1846.63,1844.91,0.826668,0.022649
852.0,0.827548,590.617,1865.55,1863.83,0.829122,0.0250977
864.0,0.827213,591.277,1884.43,1882.7,0.831391,0.0273613
876.0,0.829783,591.936,1903.27,1901.53,0.827845,0.02381
888.0,0.832106,592.595,1922.07,1920.32,0.829392,0.0253517
900.0,0.829657,593.255,1940.83,1939.06,0.829154,0.0251083
912.0,0.829162,593.914,1959.54,1957.77,0.829162,0.025111
924.0,0.828274,594.573,1978.21,1976.43,0.829362,0.0253057
936.0,0.826279,595.233,1996.84,1995.05,0.829276,0.0252143
948.0,0.829854,595.892,2015.43,2013.63,0.829854,0.025787
960.0,0.827724,596.551,2033.98,2032.17,0.827724,0.0236516
972.0,0.830471,597.211,2052.49,2050.67,0.830471,0.0263933
984.0,0.829815,597.87,2070.95,2069.13,0.829815,0.025732
996.0,0.834376,598.53,2089.38,2087.55,0.828611,0.0245226
1008.0,0.832715,599.189,2107.77,2105.93,0.828438,0.0243443
1020.0,0.829529,599.848,2126.11,2124.26,0.831216,0.027117
1032.0,0.82972,600.508,2144.42,2142.56,0.82972,0.0256156
1044.0,0.83961,601.167,2162.68,2160.81,0.830443,0.0263333
1056.0,0.828774,601.826,2180.9,2179.03,0.828774,0.0246589
1068.0,0.830079,602.486,2199.09,2197.21,0.830048,0.0259276
1080.0,0.830704,603.145,2217.23,2215.34,0.830704,0.0265783
1092.0,0.830625,603.804,2235.34,2233.44,0.829808,0.0256769
1104.0,0.830152,604.464,2253.41,2251.5,0.83056,0.0264236
1116.0,0.828831,605.123,2271.43,2269.51,0.831297,0.0271553
1128.0,0.830692,605.783,2289.42,2287.49,0.830484,0.0263369
1140.0,0.830372,606.442,2307.37,2305.43,0.83082,0.0266676
1152.0,0.829765,607.101,2325.28,2323.33,0.82893,0.0247722
1164.0,0.829651,607.761,2343.15,2341.19,0.829212,0.0250489
1176.0,0.82869,608.42,2360.98,2359.02,0.830696,0.0265276
1188.0,0.829733,609.079,2378.77,2376.8,0.830174,0.0260002
1200.0,0.832252,609.739,2396.52,2394.55,0.832252,0.0280729
1212.0,0.83049,610.398,2414.24,2412.26,0.829889,0.0257046
1224.0,0.829268,611.057,2431.92,2429.93,0.82855,0.0243602
1236.0,0.827161,611.717,2449.56,2447.56,0.828599,0.0244039
1248.0,0.829298,612.376,2467.16,2465.15,0.830822,0.0266216
1260.0,0.830553,613.036,2484.72,2482.71,0.830553,0.0263472
1272.0,0.829365,613.695,2502.25,2500.22,0.829365,0.0251539
1284.0,0.827326,614.354,2519.74,2517.7,0.827326,0.0231095
1296.0,0.830718,615.014,2537.19,2535.15,0.829647,0.0254252
1308.0,0.827494,615.673,2554.6,2552.55,0.82835,0.0241229
1320.0,0.833867,616.332,2571.98,2569.92,0.828931,0.0246985
1332.0,0.828146,616.992,2589.32,2587.25,0.82774,0.0235022
1344.0,0.829365,617.651,2606.62,2604.54,0.829365,0.0251219
1356.0,0.828335,618.31,2623.89,2621.8,0.828425,0.0241765
1368.0,0.827734,618.97,2641.11,2639.02,0.827734,0.0234802
1380.0,0.831829,619.629,2658.31,2656.21,0.830397,0.0261378
1392.0,0.839079,620.288,2675.46,2673.35,0.827018,0.0227535
1404.0,0.825302,620.948,2692.58,2690.46,0.8274,0.0231302
1416.0,0.829108,621.607,2709.66,2707.54,0.829108,0.0248328
1428.0,0.83582,622.267,2726.71,2724.58,0.828628,0.0243475
1440.0,0.826982,622.926,2743.72,2741.58,0.828175,0.0238892
1452.0,0.825465,623.585,2760.69,2758.55,0.825819,0.0215278
1464.0,0.825227,624.245,2777.63,2775.48,0.826634,0.0223375
1476.0,0.824956,624.904,2794.53,2792.37,0.824956,0.0206541
1488.0,0.823192,625.563,2811.4,2809.23,0.825975,0.0216678
1500.0,0.822489,626.223,2828.23,2826.05,0.824726,0.0204135
1512.0,0.824833,626.882,2845.03,2842.84,0.824971,0.0206531
1524.0,0.825333,627.541,2861.79,2859.59,0.825099,0.0207758
1536.0,0.824204,628.201,2878.52,2876.31,0.824204,0.0198755
1548.0,0.824225,628.86,2895.21,2892.99,0.824225,0.0198911
1560.0,0.823753,629.52,2911.86,2909.64,0.82425,0.0199108
1572.0,0.823889,630.179,2928.48,2926.25,0.827687,0.0233424
1584.0,0.824671,630.838,2945.07,2942.83,0.82472,0.0203701
1596.0,0.836012,631.498,2961.62,2959.38,0.827405,0.0230498
1608.0,0.821866,632.157,2978.14,2975.89,0.823612,0.0192514
1620.0,0.821883,632.816,2994.62,2992.36,0.823054,0.0186881
1632.0,0.823933,633.476,3011.07,3008.8,0.824248,0.0198768
1644.0,0.822893,634.135,3027.48,3025.21,0.822447,0.0180704
1656.0,0.822546,634.794,3043.86,3041.58,0.822546,0.0181641
1668.0,0.821162,635.454,3060.21,3057.92,0.821689,0.0173018
1680.0,0.820999,636.113,3076.52,3074.22,0.82028,0.0158875
1692.0,0.820408,636.772,3092.8,3090.49,0.820408,0.0160103
1704.0,0.817244,637.432,3109.04,3106.73,0.82087,0.0164677
1716.0,0.820316,638.091,3125.25,3122.93,0.820208,0.0158012
1728.0,0.820555,638.751,3141.43,3139.1,0.820284,0.015873
1740.0,0.821363,639.41,3157.57,3155.24,0.819492,0.0150772
1752.0,0.820991,640.069,3173.68,3171.34,0.819843,0.015425
1764.0,0.818672,640.729,3189.76,3187.41,0.818926,0.0145054
1776.0,0.819474,641.388,3205.81,3203.45,0.819474,0.0150515
1788.0,0.82191,642.047,3221.82,3219.45,0.820833,0.0164092
1800.0,0.820379,642.707,3237.8,3235.42,0.820379,0.015954
1812.0,0.82097,643.366,3253.74,3251.36,0.82097,0.0165439
1824.0,0.821768,644.025,3269.66,3267.27,0.822161,0.0177337
1836.0,0.820213,644.685,3285.54,3283.14,0.820631,0.0162026
1848.0,0.825835,645.344,3301.39,3298.98,0.824206,0.0197766
1860.0,0.82397,646.004,3317.2,3314.79,0.82337,0.0189397
1872.0,0.825303,646.663,3332.98,3330.57,0.824504,0.0200727
1884.0,0.822812,647.322,3348.74,3346.31,0.825502,0.0210697
1896.0,0.831372,647.982,3364.46,3362.02,0.827894,0.0234607
1908.0,0.835033,648.641,3380.14,3377.7,0.835033,0.0305987
1920.0,0.853965,649.3,3395.8,3393.35,0.854592,0.0501567
1932.0,0.864095,649.96,3411.42,3408.97,0.859927,0.0554908
1944.0,0.846435,650.619,3427.02,3424.55,0.843322,0.0388848
1956.0,0.833426,651.278,3442.58,3440.11,0.835528,0.0310898
1968.0,0.838628,651.938,3458.11,3455.63,0.833955,0.0295158
1980.0,0.842878,652.597,3473.6,3471.12,0.84248,0.0380398
1992.0,0.868543,653.257,3489.07,3486.58,0.870635,0.0661938
2004.0,0.859378,653.916,3504.51,3502.01,0.859378,0.0549359
2016.0,0.831888,654.575,3519.91,3517.4,0.831888,0.0274449
2028.0,0.822583,655.235,3535.28,3532.77,0.822583,0.0181389
2040.0,0.820788,655.894,3550.63,3548.1,0.819369,0.014924
2047.0,0.81958,656.279,3559.56,3557.04,0.818558,0.0141128