Folder: 2025-diyraman-bio/data/processed/processed_data/2024-10-11 (part 6)

File: 2024-10-11_sodiumphosphatedibasicheptahydratepowder_n_n_n_solid_10000_0_5.csv
Pixels #,Intensity (a.u.),Wavelength (nm),Raman shift (cm-1),Raman shift (cm-1) adjusted,Filtered Intensity (a.u.),Baselined Filtered Intensity (a.u.)
0.0,0.826028,543.803,407.968,406.929,0.825997,0.0287838
12.0,0.830912,544.462,430.238,429.188,0.825651,0.0284378
24.0,0.82298,545.121,452.454,451.393,0.824997,0.0277838
36.0,0.824116,545.781,474.616,473.545,0.82613,0.0289168
48.0,0.830008,546.44,496.725,495.643,0.826939,0.0297258
60.0,0.830459,547.099,518.78,517.688,0.827867,0.0306538
72.0,0.826617,547.759,540.782,539.68,0.826617,0.0294038
84.0,0.824608,548.418,562.732,561.619,0.824608,0.0273948
96.0,0.823471,549.078,584.628,583.506,0.823162,0.0259488
108.0,0.822385,549.737,606.472,605.339,0.822385,0.0251718
120.0,0.820036,550.396,628.264,627.121,0.820525,0.0233118
132.0,0.824349,551.056,650.004,648.85,0.821217,0.0240038
144.0,0.82161,551.715,671.691,670.528,0.821885,0.0246718
156.0,0.819918,552.374,693.327,692.153,0.819608,0.0223948
168.0,0.81865,553.034,714.912,713.727,0.81865,0.0214368
180.0,0.819612,553.693,736.444,735.25,0.819612,0.0223988
192.0,0.81998,554.352,757.926,756.722,0.816904,0.0196908
204.0,0.816261,555.012,779.357,778.142,0.816297,0.0190838
216.0,0.818861,555.671,800.737,799.512,0.818394,0.0211808
228.0,0.816238,556.33,822.066,820.831,0.8166,0.0193868
240.0,0.815266,556.99,843.344,842.1,0.818537,0.0213238
252.0,0.839803,557.649,864.572,863.318,0.839803,0.0425898
264.0,0.818958,558.309,885.751,884.486,0.820405,0.0231918
276.0,0.815089,558.968,906.879,905.604,0.814025,0.0168118
288.0,0.812609,559.627,927.957,926.673,0.814376,0.0171628
300.0,0.819272,560.287,948.986,947.691,0.820635,0.0234218
312.0,0.857516,560.946,969.965,968.661,0.871823,0.0746098
324.0,0.856734,561.605,990.895,989.581,0.856734,0.0595208
336.0,0.812105,562.265,1011.78,1010.45,0.812105,0.0148918
348.0,0.808642,562.924,1032.61,1031.27,0.8099,0.0126868
360.0,0.812823,563.583,1053.39,1052.05,0.812637,0.0154238
372.0,0.81383,564.243,1074.13,1072.77,0.814094,0.0168808
384.0,0.807565,564.902,1094.81,1093.45,0.809404,0.0121908
396.0,0.805683,565.562,1115.45,1114.08,0.803726,0.00651275
408.0,0.8057,566.221,1136.04,1134.66,0.803649,0.00643575
420.0,0.803578,566.88,1156.58,1155.19,0.803726,0.00651277
432.0,0.805086,567.54,1177.08,1175.68,0.805086,0.00787283
444.0,0.801728,568.199,1197.52,1196.11,0.801236,0.00402306
456.0,0.80158,568.858,1217.92,1216.5,0.80158,0.00436766
468.0,0.799872,569.518,1238.28,1236.85,0.799872,0.00266063
480.0,0.798615,570.177,1258.58,1257.14,0.800157,0.00294701
492.0,0.797543,570.836,1278.84,1277.39,0.798927,0.00171878
504.0,0.797428,571.496,1299.05,1297.59,0.797562,0.000355849
516.0,0.797014,572.155,1319.22,1317.75,0.798557,0.0013531
528.0,0.798136,572.815,1339.33,1337.86,0.798233,0.00103154
540.0,0.796683,573.474,1359.41,1357.92,0.79676,-0.000438885
552.0,0.801896,574.133,1379.43,1377.94,0.797068,-0.000128274
564.0,0.795062,574.793,1399.41,1397.91,0.795617,-0.0015766
576.0,0.798627,575.452,1419.35,1417.83,0.795404,-0.001787
588.0,0.797605,576.111,1439.24,1437.71,0.795414,-0.00177451
600.0,0.802517,576.771,1459.08,1457.54,0.795366,-0.0018202
612.0,0.795792,577.43,1478.88,1477.33,0.796195,-0.000989056
624.0,0.79754,578.089,1498.63,1497.08,0.796319,-0.000863134
636.0,0.794462,578.749,1518.34,1516.77,0.794462,-0.00271845
648.0,0.792778,579.408,1538,1536.43,0.793053,-0.00412613
660.0,0.793986,580.067,1557.62,1556.04,0.794878,-0.00230024
672.0,0.871032,580.727,1577.19,1575.6,0.794511,-0.00266667
684.0,0.794117,581.386,1596.72,1595.12,0.794476,-0.00270149
696.0,0.793682,582.046,1616.21,1614.6,0.794574,-0.00260373
708.0,0.797894,582.705,1635.65,1634.03,0.795737,-0.00144122
720.0,0.796385,583.364,1655.04,1653.42,0.795995,-0.00118392
732.0,0.794677,584.024,1674.4,1672.76,0.794068,-0.00311192
744.0,0.794376,584.683,1693.71,1692.06,0.794376,-0.00280524
756.0,0.794877,585.342,1712.97,1711.32,0.794877,-0.00230581
768.0,0.794682,586.002,1732.2,1730.53,0.794682,-0.00250276
780.0,0.793059,586.661,1751.38,1749.7,0.793059,-0.00412809
792.0,0.795018,587.32,1770.51,1768.83,0.794341,-0.00284879
804.0,0.793902,587.98,1789.61,1787.91,0.793459,-0.00373386
816.0,0.794698,588.639,1808.66,1806.96,0.794347,-0.00284938
828.0,0.79641,589.299,1827.66,1825.96,0.794487,-0.00271331
840.0,0.79329,589.958,1846.63,1844.91,0.79329,-0.00391464
852.0,0.793842,590.617,1865.55,1863.83,0.795652,-0.00155726
864.0,0.793702,591.277,1884.43,1882.7,0.797276,6.19405e-05
876.0,0.795939,591.936,1903.27,1901.53,0.794833,-0.00238599
888.0,0.799152,592.595,1922.07,1920.32,0.796048,-0.00117606
900.0,0.797631,593.255,1940.83,1939.06,0.79603,-0.00119928
912.0,0.79684,593.914,1959.54,1957.77,0.796901,-0.000333622
924.0,0.795965,594.573,1978.21,1976.43,0.79716,-7.99795e-05
936.0,0.79444,595.233,1996.84,1995.05,0.797536,0.000290653
948.0,0.798434,595.892,2015.43,2013.63,0.798434,0.00118332
960.0,0.797572,596.551,2033.98,2032.17,0.797572,0.000316063
972.0,0.800507,597.211,2052.49,2050.67,0.800507,0.00324591
984.0,0.800865,597.87,2070.95,2069.13,0.800865,0.00359896
996.0,0.805457,598.53,2089.38,2087.55,0.800049,0.00277827
1008.0,0.804468,599.189,2107.77,2105.93,0.800363,0.00308783
1020.0,0.802286,599.848,2126.11,2124.26,0.803566,0.00628675
1032.0,0.803161,600.508,2144.42,2142.56,0.802638,0.00535504
1044.0,0.812758,601.167,2162.68,2160.81,0.802518,0.00523186
1056.0,0.801918,601.826,2180.9,2179.03,0.801918,0.00462902
1068.0,0.804469,602.486,2199.09,2197.21,0.803754,0.0064627
1080.0,0.803212,603.145,2217.23,2215.34,0.803212,0.00591872
1092.0,0.804039,603.804,2235.34,2233.44,0.803386,0.00609109
1104.0,0.803366,604.464,2253.41,2251.5,0.804327,0.00703075
1116.0,0.804097,605.123,2271.43,2269.51,0.805122,0.00782478
1128.0,0.806927,605.783,2289.42,2287.49,0.805107,0.00780899
1140.0,0.804081,606.442,2307.37,2305.43,0.806097,0.00879838
1152.0,0.805571,607.101,2325.28,2323.33,0.80478,0.00748085
1164.0,0.806396,607.761,2343.15,2341.19,0.805425,0.0081254
1176.0,0.805456,608.42,2360.98,2359.02,0.806154,0.00885401
1188.0,0.806632,609.079,2378.77,2376.8,0.806632,0.00933168
1200.0,0.808819,609.739,2396.52,2394.55,0.80809,0.0107895
1212.0,0.806974,610.398,2414.24,2412.26,0.806184,0.00888324
1224.0,0.80651,611.057,2431.92,2429.93,0.806139,0.00883814
1236.0,0.804656,611.717,2449.56,2447.56,0.806342,0.00904109
1248.0,0.806529,612.376,2467.16,2465.15,0.808298,0.0109971
1260.0,0.807763,613.036,2484.72,2482.71,0.807763,0.0104621
1272.0,0.807488,613.695,2502.25,2500.22,0.807488,0.0101871
1284.0,0.806572,614.354,2519.74,2517.7,0.805951,0.00865009
1296.0,0.809703,615.014,2537.19,2535.15,0.808241,0.0109401
1308.0,0.806194,615.673,2554.6,2552.55,0.807769,0.0104681
1320.0,0.812792,616.332,2571.98,2569.92,0.808565,0.0112641
1332.0,0.807949,616.992,2589.32,2587.25,0.807662,0.0103611
1344.0,0.808827,617.651,2606.62,2604.54,0.808827,0.0115261
1356.0,0.808701,618.31,2623.89,2621.8,0.808701,0.0114001
1368.0,0.807834,618.97,2641.11,2639.02,0.807834,0.0105331
1380.0,0.812036,619.629,2658.31,2656.21,0.810416,0.0131151
1392.0,0.820023,620.288,2675.46,2673.35,0.808413,0.0111121
1404.0,0.806493,620.948,2692.58,2690.46,0.80833,0.0110291
1416.0,0.80983,621.607,2709.66,2707.54,0.80983,0.0125291
1428.0,0.818758,622.267,2726.71,2724.58,0.810783,0.0134821
1440.0,0.809347,622.926,2743.72,2741.58,0.811637,0.0143361
1452.0,0.809417,623.585,2760.69,2758.55,0.809717,0.0124161
1464.0,0.809979,624.245,2777.63,2775.48,0.811066,0.0137651
1476.0,0.810169,624.904,2794.53,2792.37,0.810251,0.0129501
1488.0,0.807795,625.563,2811.4,2809.23,0.810934,0.0136331
1500.0,0.807408,626.223,2828.23,2826.05,0.810254,0.0129531
1512.0,0.811755,626.882,2845.03,2842.84,0.811683,0.0143821
1524.0,0.81305,627.541,2861.79,2859.59,0.811175,0.0138741
1536.0,0.811096,628.201,2878.52,2876.31,0.811096,0.0137951
1548.0,0.812329,628.86,2895.21,2892.99,0.812064,0.0147631
1560.0,0.812265,629.52,2911.86,2909.64,0.813807,0.0165061
1572.0,0.812895,630.179,2928.48,2926.25,0.817362,0.0200611
1584.0,0.815608,630.838,2945.07,2942.83,0.816443,0.0191421
1596.0,0.828168,631.498,2961.62,2959.38,0.819636,0.0223351
1608.0,0.815161,632.157,2978.14,2975.89,0.816791,0.0194901
1620.0,0.816174,632.816,2994.62,2992.36,0.81693,0.0196291
1632.0,0.821293,633.476,3011.07,3008.8,0.821196,0.0238951
1644.0,0.820557,634.135,3027.48,3025.21,0.819534,0.0222331
1656.0,0.821852,634.794,3043.86,3041.58,0.821152,0.0238511
1668.0,0.822013,635.454,3060.21,3057.92,0.821806,0.0245051
1680.0,0.821902,636.113,3076.52,3074.22,0.821599,0.0242981
1692.0,0.822908,636.772,3092.8,3090.49,0.822882,0.0255811
1704.0,0.820464,637.432,3109.04,3106.73,0.824861,0.0275601
1716.0,0.824455,638.091,3125.25,3122.93,0.824759,0.0274581
1728.0,0.826093,638.751,3141.43,3139.1,0.826093,0.0287921
1740.0,0.830702,639.41,3157.57,3155.24,0.827431,0.0301301
1752.0,0.830438,640.069,3173.68,3171.34,0.830202,0.0329011
1764.0,0.832128,640.729,3189.76,3187.41,0.832128,0.0348271
1776.0,0.836909,641.388,3205.81,3203.45,0.835667,0.0383661
1788.0,0.84176,642.047,3221.82,3219.45,0.841112,0.0438111
1800.0,0.844535,642.707,3237.8,3235.42,0.845653,0.0483521
1812.0,0.849231,643.366,3253.74,3251.36,0.849231,0.0519301
1824.0,0.854649,644.025,3269.66,3267.27,0.854649,0.0573481
1836.0,0.85606,644.685,3285.54,3283.14,0.85606,0.0587591
1848.0,0.862113,645.344,3301.39,3298.98,0.859903,0.0626021
1860.0,0.86305,646.004,3317.2,3314.79,0.861611,0.0643101
1872.0,0.86431,646.663,3332.98,3330.57,0.863452,0.0661511
1884.0,0.861152,647.322,3348.74,3346.31,0.863168,0.0658671
1896.0,0.867715,647.982,3364.46,3362.02,0.863903,0.0666021
1908.0,0.864261,648.641,3380.14,3377.7,0.862458,0.0651571
1920.0,0.862719,649.3,3395.8,3393.35,0.862719,0.0654181
1932.0,0.867667,649.96,3411.42,3408.97,0.863313,0.0660121
1944.0,0.869594,650.619,3427.02,3424.55,0.864944,0.0676431
1956.0,0.870173,651.278,3442.58,3440.11,0.870691,0.0733901
1968.0,0.887019,651.938,3458.11,3455.63,0.882022,0.0847211
1980.0,0.881041,652.597,3473.6,3471.12,0.879915,0.0826141
1992.0,0.867394,653.257,3489.07,3486.58,0.869338,0.0720371
2004.0,0.857479,653.916,3504.51,3502.01,0.857479,0.0601781
2016.0,0.848562,654.575,3519.91,3517.4,0.848562,0.0512611
2028.0,0.838944,655.235,3535.28,3532.77,0.83914,0.0418391
2040.0,0.833736,655.894,3550.63,3548.1,0.832439,0.0351381
2047.0,0.829967,656.279,3559.56,3557.04,0.829299,0.0319981

File: 2024-10-11_sodiumsulfatepowder_n_n_n_solid_10000_0_5.csv
Pixels #,Intensity (a.u.),Wavelength (nm),Raman shift (cm-1),Raman shift (cm-1) adjusted,Filtered Intensity (a.u.),Baselined Filtered Intensity (a.u.)
0.0,0.816854,543.803,407.968,406.929,0.816854,0.0181245
13.0,0.816392,544.517,432.091,431.041,0.818021,0.0192915
26.0,0.817262,545.231,456.151,455.089,0.81593,0.0172005
39.0,0.848368,545.946,480.148,479.075,0.819958,0.0212285
52.0,0.819209,546.66,504.082,502.998,0.817923,0.0191935
65.0,0.818224,547.374,527.954,526.858,0.817537,0.0188075
78.0,0.818865,548.088,551.763,550.656,0.817388,0.0186585
91.0,0.823506,548.803,575.511,574.393,0.818135,0.0194055
104.0,0.815771,549.517,599.197,598.067,0.819605,0.0208755
117.0,0.818965,550.231,622.821,621.68,0.819862,0.0211325
130.0,0.817787,550.946,646.384,645.232,0.818333,0.0196035
143.0,0.817296,551.66,669.886,668.723,0.815984,0.0172545
156.0,0.814543,552.374,693.327,692.153,0.81423,0.0155005
169.0,0.815534,553.089,716.708,715.523,0.814016,0.0152865
182.0,0.815582,553.803,740.028,738.832,0.815298,0.0165685
195.0,0.81298,554.517,763.289,762.082,0.81298,0.0142505
208.0,0.810434,555.232,786.489,785.271,0.811863,0.0131335
221.0,0.814052,555.946,809.63,808.401,0.813371,0.0146415
234.0,0.814856,556.66,832.711,831.472,0.814757,0.0160275
247.0,0.816926,557.374,855.733,854.483,0.815363,0.0166335
260.0,0.814715,558.089,878.697,877.435,0.813309,0.0145795
273.0,0.822359,558.803,901.601,900.329,0.814875,0.0161455
286.0,0.81398,559.517,924.448,923.165,0.812748,0.0140185
299.0,0.82256,560.232,947.235,945.942,0.815796,0.0170665
312.0,0.814674,560.946,969.965,968.661,0.815571,0.0168415
325.0,0.995918,561.66,992.637,991.322,0.993128,0.194398
338.0,0.816785,562.375,1015.25,1013.93,0.816247,0.0175175
351.0,0.81282,563.089,1037.81,1036.47,0.811839,0.0131095
364.0,0.808136,563.803,1060.31,1058.96,0.810462,0.0117325
377.0,0.810106,564.518,1082.75,1081.39,0.809651,0.0109215
390.0,0.829307,565.232,1105.14,1103.77,0.828717,0.0299875
403.0,0.818052,565.946,1127.47,1126.09,0.818052,0.0193225
416.0,0.818141,566.66,1149.74,1148.35,0.819464,0.0207345
429.0,0.805628,567.375,1171.96,1170.56,0.806758,0.00802848
442.0,0.805119,568.089,1194.12,1192.71,0.805835,0.00710572
455.0,0.804903,568.803,1216.23,1214.81,0.805431,0.00670268
468.0,0.804193,569.518,1238.28,1236.85,0.804193,0.00546634
481.0,0.804383,570.232,1260.27,1258.83,0.804383,0.00565882
494.0,0.821298,570.946,1282.21,1280.76,0.805419,0.00669808
507.0,0.80204,571.661,1304.1,1302.63,0.80204,0.00332306
520.0,0.803836,572.375,1325.93,1324.45,0.803836,0.00512356
533.0,0.80047,573.089,1347.7,1346.22,0.802308,0.00360055
546.0,0.801724,573.804,1369.43,1367.93,0.801724,0.00302196
559.0,0.800587,574.518,1391.09,1389.59,0.801444,0.0027478
572.0,0.798922,575.232,1412.71,1411.19,0.799063,0.000372942
585.0,0.816343,575.946,1434.27,1432.74,0.799646,0.000962321
598.0,0.800045,576.661,1455.78,1454.24,0.799964,0.00128695
611.0,0.802619,577.375,1477.23,1475.69,0.800519,0.00184875
624.0,0.802018,578.089,1498.63,1497.08,0.801192,0.00252876
637.0,0.798751,578.804,1519.98,1518.41,0.798666,9.94668e-06
650.0,0.798353,579.518,1541.27,1539.7,0.797147,-0.00150191
663.0,0.798601,580.232,1562.52,1560.93,0.798601,-4.08498e-05
676.0,0.795735,580.947,1583.71,1582.11,0.796509,-0.00212579
689.0,0.796642,581.661,1604.85,1603.24,0.796889,-0.00173895
702.0,0.802436,582.375,1625.93,1624.32,0.796138,-0.00248336
715.0,0.798017,583.09,1646.97,1645.34,0.79771,-0.000904917
728.0,0.796187,583.804,1667.95,1666.32,0.797837,-0.000771622
741.0,0.796892,584.518,1688.88,1687.24,0.79715,-0.00145254
754.0,0.798222,585.232,1709.77,1708.11,0.798125,-0.000471611
767.0,0.796992,585.947,1730.6,1728.93,0.796992,-0.00159894
780.0,0.794603,586.661,1751.38,1749.7,0.795156,-0.0034295
793.0,0.79536,587.375,1772.1,1770.42,0.797154,-0.00142635
806.0,0.795526,588.09,1792.78,1791.09,0.796348,-0.00222748
819.0,0.795554,588.804,1813.41,1811.71,0.795554,-0.00301697
832.0,0.795472,589.518,1833.99,1832.28,0.795472,-0.00309481
845.0,0.802246,590.233,1854.52,1852.8,0.800295,0.00173201
858.0,0.796494,590.947,1875,1873.27,0.796492,-0.00206739
871.0,0.79579,591.661,1895.43,1893.69,0.797134,-0.001422
884.0,0.797474,592.376,1915.81,1914.06,0.797001,-0.00155179
897.0,0.797899,593.09,1936.14,1934.38,0.796691,-0.00185881
910.0,0.797843,593.804,1956.42,1954.65,0.797205,-0.00134214
923.0,0.79644,594.518,1976.66,1974.88,0.796686,-0.00185869
936.0,0.793894,595.233,1996.84,1995.05,0.797027,-0.00151554
949.0,0.80271,595.947,2016.98,2015.18,0.797575,-0.000965643
962.0,0.798824,596.661,2037.07,2035.26,0.796157,-0.00238192
975.0,0.802163,597.376,2057.11,2055.29,0.798359,-0.000178432
988.0,0.796571,598.09,2077.1,2075.27,0.79752,-0.00101608
1001.0,0.798422,598.804,2097.05,2095.21,0.797715,-0.000819915
1014.0,0.795754,599.519,2116.94,2115.1,0.795861,-0.00267288
1027.0,0.798209,600.233,2136.79,2134.94,0.798025,-0.000508045
1040.0,0.802592,600.947,2156.6,2154.73,0.79796,-0.000572362
1053.0,0.79688,601.662,2176.35,2174.48,0.797321,-0.00121082
1066.0,0.796015,602.376,2196.06,2194.18,0.796313,-0.00221848
1079.0,0.799935,603.09,2215.72,2213.83,0.797591,-0.000940287
1092.0,0.798577,603.804,2235.34,2233.44,0.797645,-0.000886107
1105.0,0.802056,604.519,2254.91,2253,0.798129,-0.000401938
1118.0,0.801555,605.233,2274.43,2272.51,0.801715,0.00318432
1131.0,0.798878,605.947,2293.91,2291.98,0.798008,-0.000522273
1144.0,0.800851,606.662,2313.34,2311.4,0.799459,0.000929254
1157.0,0.798621,607.376,2332.73,2330.78,0.801071,0.00254194
1170.0,0.798233,608.09,2352.07,2350.11,0.798233,-0.000295284
1183.0,0.80157,608.805,2371.36,2369.4,0.797701,-0.000826401
1196.0,0.800321,609.519,2390.61,2388.64,0.800321,0.00179459
1209.0,0.799864,610.233,2409.82,2407.83,0.799513,0.000987778
1222.0,0.839085,610.948,2428.97,2426.98,0.799495,0.000971081
1235.0,0.79865,611.662,2448.09,2446.09,0.799012,0.000489459
1248.0,0.799374,612.376,2467.16,2465.15,0.800385,0.0018639
1261.0,0.803234,613.09,2486.19,2484.17,0.797934,-0.000585477
1274.0,0.799509,613.805,2505.17,2503.14,0.799509,0.000991328
1287.0,0.814736,614.519,2524.1,2522.07,0.800038,0.00152226
1300.0,0.800355,615.233,2543,2540.95,0.800355,0.00184133
1313.0,0.799446,615.948,2561.85,2559.79,0.799724,0.00121264
1326.0,0.801134,616.662,2580.65,2578.59,0.799458,0.000949148
1339.0,0.800644,617.376,2599.42,2597.34,0.800644,0.00213784
1352.0,0.800311,618.091,2618.13,2616.05,0.800311,0.00180772
1365.0,0.798602,618.805,2636.81,2634.72,0.799245,0.000744892
1378.0,0.802593,619.519,2655.44,2653.34,0.801601,0.00310426
1391.0,0.799219,620.234,2674.03,2671.93,0.802625,0.00413176
1404.0,0.796603,620.948,2692.58,2690.46,0.799374,0.000884425
1417.0,0.801693,621.662,2711.08,2708.96,0.801693,0.00320727
1430.0,0.801775,622.376,2729.55,2727.41,0.801775,0.00329339
1443.0,0.802354,623.091,2747.97,2745.82,0.802274,0.00379674
1456.0,0.80147,623.805,2766.34,2764.19,0.80147,0.0029974
1469.0,0.799528,624.519,2784.68,2782.52,0.799384,0.000916289
1482.0,0.799293,625.234,2802.97,2800.8,0.799662,0.0011993
1495.0,0.800189,625.948,2821.22,2819.05,0.79979,0.0013325
1508.0,0.802347,626.662,2839.43,2837.25,0.800269,0.00181687
1521.0,0.800364,627.377,2857.6,2855.41,0.800098,0.00165138
1534.0,0.797949,628.091,2875.73,2873.53,0.800095,0.00165408
1547.0,0.798405,628.805,2893.82,2891.61,0.800116,0.00168097
1560.0,0.799154,629.52,2911.86,2909.64,0.799154,0.000725005
1573.0,0.807216,630.234,2929.87,2927.64,0.8025,0.00407708
1586.0,0.803162,630.948,2947.83,2945.59,0.800443,0.00202621
1599.0,0.797973,631.662,2965.75,2963.51,0.799535,0.00112454
1612.0,0.796333,632.377,2983.63,2981.38,0.797931,-0.000473034
1625.0,0.799573,633.091,3001.48,2999.21,0.800429,0.00203142
1638.0,0.798482,633.805,3019.28,3017.01,0.798482,9.10059e-05
1651.0,0.799358,634.52,3037.04,3034.76,0.799358,0.000973683
1664.0,0.796171,635.234,3054.76,3052.47,0.799296,0.00091847
1677.0,0.795953,635.948,3072.44,3070.15,0.798126,-0.000244649
1690.0,0.800692,636.663,3090.09,3087.78,0.797636,-0.000727798
1703.0,0.799016,637.377,3107.69,3105.38,0.799016,0.000658975
1716.0,0.798149,638.091,3125.25,3122.93,0.797776,-0.000574239
1729.0,0.798342,638.806,3142.78,3140.45,0.798342,-1.47715e-06
1742.0,0.796002,639.52,3160.26,3157.92,0.797324,-0.00101275
1755.0,0.796324,640.234,3177.71,3175.36,0.79731,-0.00102009
1768.0,0.797827,640.948,3195.11,3192.76,0.797827,-0.000496536
1781.0,0.797282,641.663,3212.48,3210.12,0.797282,-0.00103512
1794.0,0.796934,642.377,3229.81,3227.44,0.796885,-0.00142589
1807.0,0.798422,643.091,3247.1,3244.72,0.798422,0.000117115
1820.0,0.797229,643.806,3264.36,3261.97,0.797229,-0.00106998
1833.0,0.795992,644.52,3281.57,3279.18,0.795992,-0.00230125
1846.0,0.811473,645.234,3298.75,3296.34,0.798119,-0.000168784
1859.0,0.796292,645.949,3315.88,3313.47,0.797038,-0.00124454
1872.0,0.797731,646.663,3332.98,3330.57,0.796974,-0.00130356
1885.0,0.795678,647.377,3350.05,3347.62,0.795678,-0.00259484
1898.0,0.799071,648.092,3367.07,3364.64,0.79647,-0.00179841
1911.0,0.796097,648.806,3384.06,3381.62,0.796097,-0.00216729
1924.0,0.796504,649.52,3401.01,3398.56,0.794498,-0.00376253
1937.0,0.794426,650.234,3417.92,3415.47,0.795356,-0.00290115
1950.0,0.794707,650.949,3434.8,3432.33,0.796877,-0.00137713
1963.0,0.793588,651.663,3451.64,3449.16,0.794256,-0.00399545
1976.0,0.793975,652.377,3468.44,3465.96,0.795324,-0.00292518
1989.0,0.795906,653.092,3485.21,3482.72,0.796344,-0.00190333
2002.0,0.79435,653.806,3501.93,3499.44,0.795159,-0.00308678
2015.0,0.79627,654.52,3518.63,3516.12,0.795163,-0.00308153
2028.0,0.794504,655.235,3535.28,3532.77,0.795117,-0.00312666
2041.0,0.797095,655.949,3551.9,3549.38,0.797095,-0.00114824
2047.0,0.797363,656.279,3559.56,3557.04,0.795615,-0.0026282