Folder: 2025-diyraman-bio/data/processed/processed_data/2024-08-27 (part 2)

File: 2024-08-27_magnesiumsulfateheptahydrate_n_y_y_solid_5000_0_5.csv
Pixels #,Intensity (a.u.),Wavelength (nm),Raman shift (cm-1),Raman shift (cm-1) adjusted,Filtered Intensity (a.u.),Baselined Filtered Intensity (a.u.)
0.0,0.00271178,543.317,391.539,390.861,0.000676768,0.000670421
13.0,0.00105395,544.033,415.745,415.03,0.00105395,0.0010476
26.0,0.000926153,544.748,439.888,439.135,0.000781844,0.000775497
39.0,0.0025301,545.464,463.967,463.177,0.00172315,0.0017168
52.0,0.00182301,546.179,487.983,487.156,0.00182301,0.00181666
65.0,0.000980037,546.895,511.937,511.073,0.000790515,0.00078417
78.0,0.00148805,547.61,535.827,534.926,0.00148805,0.00148171
91.0,0.00133769,548.326,559.656,558.718,0.00128237,0.00127603
104.0,0.00236502,549.041,583.422,582.448,0.00236502,0.00235868
117.0,0.00179323,549.757,607.127,606.115,0.00179323,0.00178689
130.0,0.00262709,550.472,630.769,629.722,0.00256957,0.00256323
143.0,0.00187881,551.188,654.351,653.267,0.0017628,0.00175646
156.0,0.00134652,551.903,677.871,676.751,0.00122271,0.00121637
169.0,0.00207084,552.619,701.331,700.174,0.00149536,0.00148902
182.0,0.00129373,553.334,724.729,723.536,0.00129373,0.00128739
195.0,0.0,554.05,748.068,746.838,0.000712228,0.000705892
208.0,0.0,554.765,771.346,770.08,0.000434765,0.00042843
221.0,0.00125737,555.481,794.564,793.263,0.000871979,0.000865644
234.0,0.00166291,556.196,817.722,816.385,0.00126769,0.00126136
247.0,0.00153553,556.912,840.821,839.448,0.00153553,0.0015292
260.0,0.00219968,557.627,863.861,862.452,0.00219968,0.00219335
273.0,0.00078952,558.343,886.841,885.397,0.00078952,0.000783187
286.0,0.000982362,559.058,909.763,908.284,0.000982362,0.000976029
299.0,0.000915885,559.774,932.626,931.111,0.000915885,0.000909553
312.0,0.000731253,560.489,955.431,953.881,0.00046083,0.000454498
325.0,0.0318836,561.205,978.177,976.592,0.0318836,0.0318773
338.0,0.0224387,561.92,1000.87,999.246,0.0224387,0.0224324
351.0,0.0026337,562.636,1023.5,1021.84,0.0026337,0.00262737
364.0,0.00161676,563.351,1046.07,1044.38,0.00161676,0.00161043
377.0,0.00316779,564.067,1068.59,1066.86,0.00327507,0.00326874
390.0,0.00217637,564.782,1091.05,1089.29,0.00263476,0.00262843
403.0,0.00236611,565.497,1113.45,1111.65,0.00236611,0.00235978
416.0,0.000943952,566.213,1135.79,1133.97,0.00121892,0.00121259
429.0,0.00220635,566.928,1158.08,1156.22,0.00220635,0.00220002
442.0,0.000905964,567.644,1180.32,1178.42,0.00100043,0.000994101
455.0,0.000930734,568.359,1202.49,1200.56,0.00127843,0.0012721
468.0,0.00137047,569.075,1224.62,1222.65,0.00137047,0.00136414
481.0,0.000934511,569.79,1246.68,1244.68,0.000636209,0.00062988
494.0,0.00149284,570.506,1268.69,1266.66,0.00129686,0.00129053
507.0,0.00014706,571.221,1290.65,1288.58,0.00014706,0.000140732
520.0,0.00161904,571.937,1312.55,1310.45,0.00132106,0.00131473
533.0,0.00182051,572.652,1334.39,1332.26,0.00170218,0.00169585
546.0,0.0015712,573.368,1356.18,1354.01,0.0015712,0.00156487
559.0,0.000155259,574.083,1377.92,1375.72,0.00107471,0.00106839
572.0,0.00142641,574.799,1399.6,1397.37,0.00104161,0.00103529
585.0,0.00214289,575.514,1421.23,1418.96,0.00167814,0.00167182
598.0,0.000739775,576.23,1442.81,1440.5,0.000977814,0.000971491
611.0,0.0021519,576.945,1464.33,1461.99,0.00190875,0.00190243
624.0,0.0015435,577.661,1485.8,1483.43,0.00136995,0.00136363
637.0,0.000780024,578.376,1507.21,1504.81,0.000686996,0.000680675
650.0,0.000612319,579.092,1528.57,1526.14,0.000612319,0.000605999
663.0,0.000615222,579.807,1549.88,1547.42,0.000894021,0.000887701
676.0,0.000168311,580.523,1571.14,1568.64,0.000179934,0.000173615
689.0,0.000883329,581.238,1592.35,1589.81,0.00139128,0.00138496
702.0,0.000892126,581.954,1613.5,1610.93,0.000909952,0.000903633
715.0,0.00152026,582.669,1634.6,1632,0.00157579,0.00156947
728.0,0.00134777,583.385,1655.65,1653.02,0.00134777,0.00134145
741.0,0.00193131,584.1,1676.65,1673.98,0.00193131,0.00192499
754.0,0.00162053,584.816,1697.59,1694.89,0.00218074,0.00217442
767.0,0.00185768,585.531,1718.49,1715.76,0.00179116,0.00178484
780.0,0.000227453,586.247,1739.33,1736.57,0.000227453,0.000221137
793.0,0.000967933,586.962,1760.12,1757.33,0.00171729,0.00171097
806.0,0.00122035,587.678,1780.86,1778.04,0.00122035,0.00121404
819.0,0.000793904,588.393,1801.56,1798.7,0.000846498,0.000840184
832.0,0.00136025,589.109,1822.2,1819.31,0.00127776,0.00127145
845.0,0.00131463,589.824,1842.79,1839.87,0.00131463,0.00130832
858.0,0.00182245,590.54,1863.33,1860.38,0.00185731,0.001851
871.0,0.00147975,591.255,1883.82,1880.84,0.00147975,0.00147344
884.0,0.00151576,591.971,1904.27,1901.25,0.00204342,0.00203711
897.0,0.00130692,592.686,1924.66,1921.61,0.00178214,0.00177583
910.0,0.00220891,593.402,1945,1941.92,0.00195626,0.00194995
923.0,0.00120707,594.117,1965.3,1962.19,0.00148465,0.00147834
936.0,0.000501123,594.833,1985.54,1982.4,0.000501123,0.000494811
949.0,0.00133434,595.548,2005.74,2002.57,0.00146032,0.00145401
962.0,0.000321507,596.264,2025.89,2022.68,0.000321507,0.000315195
975.0,0.00130479,596.979,2045.99,2042.75,0.00157933,0.00157302
988.0,0.00045893,597.695,2066.04,2062.77,0.000619605,0.000613293
1001.0,0.0016797,598.41,2086.05,2082.75,0.00138382,0.00137751
1014.0,0.000925219,599.126,2106,2102.67,0.000925219,0.000918907
1027.0,0.00097111,599.841,2125.91,2122.55,0.00116698,0.00116067
1040.0,0.00107984,600.557,2145.77,2142.38,0.00107984,0.00107353
1053.0,0.0011161,601.272,2165.59,2162.17,0.000867469,0.000861156
1066.0,0.000314264,601.988,2185.36,2181.9,0.000705971,0.000699658
1079.0,0.00117884,602.703,2205.08,2201.59,0.00128949,0.00128318
1092.0,0.000381088,603.419,2224.75,2221.24,0.000849637,0.000843323
1105.0,0.000412952,604.134,2244.38,2240.83,0.000569012,0.000562698
1118.0,0.00213382,604.85,2263.96,2260.38,0.0010581,0.00105179
1131.0,0.001437,605.565,2283.49,2279.89,0.00109338,0.00108707
1144.0,0.00153228,606.281,2302.98,2299.35,0.00153228,0.00152596
1157.0,0.00131701,606.996,2322.42,2318.76,0.0016582,0.00165188
1170.0,0.000843848,607.712,2341.82,2338.12,0.00113085,0.00112453
1183.0,0.0,608.427,2361.17,2357.44,0.000349621,0.000343304
1196.0,0.00304245,609.143,2380.47,2376.72,0.00263724,0.00263092
1209.0,0.00140627,609.858,2399.73,2395.95,0.00105988,0.00105356
1222.0,0.00154292,610.574,2418.95,2415.14,0.00148813,0.00148181
1235.0,0.000149675,611.289,2438.12,2434.28,0.000490603,0.000484284
1248.0,0.00237162,612.005,2457.24,2453.37,0.00166928,0.00166296
1261.0,0.0,612.72,2476.32,2472.42,3.65349e-06,-2.66727e-06
1274.0,0.000579486,613.435,2495.36,2491.43,0.000500699,0.000494377
1287.0,0.00219168,614.151,2514.35,2510.39,0.00160908,0.00160276
1300.0,0.00159566,614.866,2533.3,2529.31,0.00131547,0.00130915
1313.0,0.000340584,615.582,2552.2,2548.18,0.000448601,0.000442276
1326.0,0.0015584,616.297,2571.06,2567.01,0.0015584,0.00155207
1339.0,0.00155851,617.013,2589.88,2585.8,0.000917121,0.000910794
1352.0,0.00166512,617.728,2608.65,2604.54,0.00166512,0.00165879
1365.0,0.000879028,618.444,2627.38,2623.24,0.00140847,0.00140214
1378.0,0.00211869,619.159,2646.06,2641.9,0.00214547,0.00213914
1391.0,0.00144565,619.875,2664.71,2660.51,0.00144565,0.00143932
1404.0,0.000854761,620.59,2683.31,2679.08,0.000778913,0.00077258
1417.0,0.00230626,621.306,2701.86,2697.61,0.00230626,0.00229993
1430.0,0.00144298,622.021,2720.38,2716.1,0.00171693,0.00171059
1443.0,0.00208651,622.737,2738.85,2734.54,0.00208651,0.00208017
1456.0,0.00160505,623.452,2757.28,2752.94,0.00112997,0.00112363
1469.0,0.00064369,624.168,2775.66,2771.3,0.000342257,0.000335917
1482.0,0.0016042,624.883,2794.01,2789.61,0.0016042,0.00159786
1495.0,0.000601693,625.599,2812.31,2807.89,0.000721993,0.00071565
1508.0,0.00129917,626.314,2830.57,2826.12,0.00129917,0.00129283
1521.0,0.00145233,627.03,2848.79,2844.31,0.00145233,0.00144598
1534.0,0.000634011,627.745,2866.97,2862.46,0.000652626,0.000646279
1547.0,0.000875078,628.461,2885.1,2880.57,0.00102208,0.00101573
1560.0,0.00264642,629.176,2903.2,2898.63,0.00201608,0.00200973
1573.0,0.00207536,629.892,2921.25,2916.66,0.00191189,0.00190554
1586.0,0.00201705,630.607,2939.26,2934.65,0.00201705,0.0020107
1599.0,0.00148787,631.323,2957.24,2952.59,0.00148787,0.00148152
1612.0,0.0,632.038,2975.17,2970.49,0.000424109,0.000417755
1625.0,0.00142354,632.754,2993.06,2988.36,0.00118572,0.00117936
1638.0,0.00102636,633.469,3010.91,3006.18,0.00102636,0.00102
1651.0,0.00208559,634.185,3028.72,3023.96,0.00127664,0.00127028
1664.0,0.0014181,634.9,3046.49,3041.7,0.00162613,0.00161977
1677.0,5.69584e-05,635.616,3064.22,3059.41,0.000227878,0.000221517
1690.0,0.00132382,636.331,3081.91,3077.07,0.00114599,0.00113963
1703.0,0.00139396,637.047,3099.56,3094.69,0.00139396,0.0013876
1716.0,0.000604028,637.762,3117.17,3112.28,0.000601342,0.000594979
1729.0,0.00132955,638.478,3134.74,3129.82,0.000716157,0.000709793
1742.0,3.62099e-05,639.193,3152.27,3147.32,0.000559228,0.000552863
1755.0,0.00108629,639.909,3169.76,3164.79,0.00116355,0.00115718
1768.0,0.00103469,640.624,3187.22,3182.22,0.00123603,0.00122967
1781.0,0.00287721,641.34,3204.63,3199.6,0.00287721,0.00287085
1794.0,0.00425474,642.055,3222.01,3216.95,0.00367003,0.00366367
1807.0,0.00370286,642.771,3239.34,3234.26,0.00357343,0.00356707
1820.0,0.00366143,643.486,3256.64,3251.53,0.00366143,0.00365507
1833.0,0.00436427,644.202,3273.9,3268.77,0.00403435,0.00402799
1846.0,0.00434775,644.917,3291.13,3285.96,0.00489541,0.00488905
1859.0,0.00343,645.633,3308.31,3303.12,0.00278745,0.00278109
1872.0,0.00370196,646.348,3325.45,3320.24,0.00370196,0.0036956
1885.0,0.00183241,647.064,3342.56,3337.32,0.00234986,0.0023435
1898.0,0.00113641,647.779,3359.63,3354.36,0.00183465,0.00182829
1911.0,0.00167565,648.495,3376.66,3371.37,0.00144603,0.00143967
1924.0,0.000408886,649.21,3393.66,3388.34,0.000259246,0.000252883
1937.0,0.000843057,649.926,3410.62,3405.27,0.000843057,0.000836694
1950.0,0.00157351,650.641,3427.54,3422.16,0.00174055,0.00173419
1963.0,0.00102865,651.357,3444.42,3439.02,0.00153933,0.00153297
1976.0,0.00274169,652.072,3461.26,3455.84,0.00266056,0.0026542
1989.0,0.00444886,652.788,3478.07,3472.62,0.00444886,0.0044425
2002.0,0.0011517,653.503,3494.85,3489.37,0.00171546,0.0017091
2015.0,0.00231376,654.219,3511.58,3506.08,0.00271989,0.00271353
2028.0,0.00141322,654.934,3528.28,3522.75,0.00141322,0.00140686
2041.0,0.00211868,655.65,3544.94,3539.39,0.00143127,0.00142491
2047.0,0.000169635,655.98,3552.62,3547.05,8.15946e-05,7.52324e-05