Folder: 2025-diyraman-bio/data/processed/processed_data/2024-09-03 (part 8)

File: 2024-09-03_glycinepowder_n_n_y_solid_1000_0_100.csv
Pixels #,Intensity (a.u.),Wavelength (nm),Raman shift (cm-1),Raman shift (cm-1) adjusted,Filtered Intensity (a.u.),Baselined Filtered Intensity (a.u.)
0.0,7.56429,543.337,392.223,393.994,7.56392,-0.0587918
12.0,7.56407,543.997,414.551,416.293,7.56394,-0.0587762
24.0,7.56487,544.657,436.825,438.537,7.56487,-0.0578589
36.0,7.56621,545.317,459.044,460.728,7.56585,-0.0568998
48.0,7.56742,545.977,481.21,482.866,7.56742,-0.0553588
60.0,7.58531,546.637,503.323,504.95,7.58531,-0.0375055
72.0,7.60873,547.297,525.382,526.981,7.60873,-0.0141277
84.0,7.63068,547.957,547.388,548.958,7.63068,0.00777804
96.0,7.63758,548.617,569.341,570.883,7.63687,0.0139247
108.0,7.63741,549.277,591.241,592.755,7.63741,0.0144233
120.0,7.64137,549.937,613.089,614.575,7.64001,0.0169841
132.0,7.63729,550.597,634.884,636.342,7.63729,0.0142272
144.0,7.64173,551.257,656.627,658.057,7.64173,0.0186325
156.0,7.64702,551.917,678.319,679.72,7.64706,0.0239305
168.0,7.66245,552.577,699.958,701.332,7.66245,0.0392922
180.0,7.68459,553.237,721.546,722.892,7.68459,0.0614096
192.0,7.72504,553.897,743.082,744.4,7.72504,0.101846
204.0,7.78192,554.557,764.567,765.858,7.78192,0.158724
216.0,7.86896,555.217,786.001,787.264,7.86896,0.245764
228.0,7.98412,555.876,807.384,808.62,7.98412,0.360924
240.0,8.12503,556.536,828.716,829.924,8.12503,0.501834
252.0,8.25752,557.196,849.998,851.179,8.25752,0.634324
264.0,8.35617,557.856,871.23,872.383,8.35617,0.732974
276.0,8.46,558.516,892.411,893.537,8.46,0.836804
288.0,8.43254,559.176,913.542,914.641,8.43329,0.810094
300.0,8.44213,559.836,934.624,935.695,8.44117,0.817974
312.0,8.44517,560.496,955.656,956.7,8.44245,0.819254
324.0,8.44743,561.156,976.638,977.655,8.44667,0.823474
336.0,8.4587,561.816,997.571,998.562,8.4587,0.835504
348.0,8.47941,562.476,1018.45,1019.42,8.47941,0.856214
360.0,8.50664,563.136,1039.29,1040.23,8.50662,0.883424
372.0,8.50947,563.796,1060.08,1060.99,8.50803,0.884834
384.0,8.51373,564.456,1080.81,1081.7,8.51388,0.890684
396.0,8.52385,565.116,1101.5,1102.36,8.52322,0.900024
408.0,8.52573,565.776,1122.14,1122.97,8.52573,0.902534
420.0,8.53612,566.436,1142.74,1143.54,8.53612,0.912924
432.0,8.53969,567.096,1163.28,1164.06,8.53966,0.916464
444.0,8.5451,567.756,1183.78,1184.53,8.5451,0.921904
456.0,8.55739,568.416,1204.23,1204.95,8.55739,0.934194
468.0,8.56215,569.075,1224.63,1225.33,8.56215,0.938954
480.0,8.56858,569.735,1244.99,1245.66,8.56858,0.945384
492.0,8.57229,570.395,1265.29,1265.94,8.57239,0.949194
504.0,8.58001,571.055,1285.55,1286.17,8.58001,0.956814
516.0,8.60806,571.715,1305.77,1306.36,8.60806,0.984864
528.0,8.66997,572.375,1325.94,1326.5,8.66997,1.04677
540.0,8.6044,573.035,1346.06,1346.6,8.60464,0.981444
552.0,8.61222,573.695,1366.13,1366.65,8.61145,0.988254
564.0,8.62586,574.355,1386.16,1386.65,8.62586,1.00266
576.0,8.65679,575.015,1406.14,1406.61,8.65679,1.03359
588.0,8.6365,575.675,1426.08,1426.52,8.63705,1.01385
600.0,8.64763,576.335,1445.97,1446.38,8.64763,1.02443
612.0,8.63969,576.995,1465.82,1466.2,8.63969,1.01649
624.0,8.64264,577.655,1485.62,1485.98,8.64282,1.01962
636.0,8.65266,578.315,1505.37,1505.71,8.65266,1.02946
648.0,8.65649,578.975,1525.08,1525.39,8.65747,1.03427
660.0,8.65973,579.635,1544.75,1545.03,8.6594,1.0362
672.0,8.67337,580.295,1564.37,1564.63,8.67312,1.04992
684.0,8.66574,580.955,1583.94,1584.18,8.66574,1.04254
696.0,8.66223,581.614,1603.47,1603.68,8.66223,1.03903
708.0,8.66453,582.274,1622.96,1623.15,8.66514,1.04194
720.0,8.66206,582.934,1642.4,1642.56,8.66274,1.03954
732.0,8.66866,583.594,1661.8,1661.94,8.66858,1.04538
744.0,8.66712,584.254,1681.16,1681.27,8.668,1.0448
756.0,8.66835,584.914,1700.47,1700.55,8.6679,1.0447
768.0,8.66842,585.574,1719.74,1719.8,8.66842,1.04522
780.0,8.66787,586.234,1738.96,1739,8.66876,1.04556
792.0,8.66951,586.894,1758.14,1758.15,8.66957,1.04637
804.0,8.67065,587.554,1777.28,1777.27,8.67062,1.04742
816.0,8.66945,588.214,1796.38,1796.34,8.66865,1.04545
828.0,8.67206,588.874,1815.43,1815.37,8.67206,1.04886
840.0,8.6716,589.534,1834.44,1834.35,8.67161,1.04841
852.0,8.67393,590.194,1853.41,1853.29,8.67393,1.05073
864.0,8.67666,590.854,1872.33,1872.2,8.6761,1.0529
876.0,8.67296,591.514,1891.21,1891.05,8.67312,1.04992
888.0,8.6752,592.174,1910.05,1909.87,8.67494,1.05174
900.0,8.6669,592.834,1928.85,1928.64,8.66809,1.04489
912.0,8.66678,593.494,1947.61,1947.38,8.66678,1.04358
924.0,8.66476,594.154,1966.33,1966.07,8.66372,1.04052
936.0,8.65847,594.813,1985,1984.72,8.65847,1.03527
948.0,8.65351,595.473,2003.63,2003.33,8.65351,1.03031
960.0,8.64788,596.133,2022.22,2021.89,8.64788,1.02468
972.0,8.64499,596.793,2040.77,2040.42,8.64499,1.02179
984.0,8.63783,597.453,2059.28,2058.91,8.63698,1.01378
996.0,8.63107,598.113,2077.75,2077.35,8.63001,1.00681
1008.0,8.62375,598.773,2096.18,2095.75,8.62303,0.999834
1020.0,8.61794,599.433,2114.56,2114.12,8.61842,0.995224
1032.0,8.61375,600.093,2132.91,2132.44,8.61375,0.990554
1044.0,8.60882,600.753,2151.22,2150.72,8.60882,0.985624
1056.0,8.60112,601.413,2169.48,2168.96,8.60155,0.978354
1068.0,8.59421,602.073,2187.71,2187.17,8.59433,0.971134
1080.0,8.59179,602.733,2205.89,2205.33,8.59179,0.968594
1092.0,8.58744,603.393,2224.04,2223.45,8.58864,0.965444
1104.0,8.58572,604.053,2242.15,2241.54,8.58572,0.962524
1116.0,8.58043,604.713,2260.21,2259.58,8.58098,0.957784
1128.0,8.57247,605.373,2278.24,2277.58,8.57247,0.949274
1140.0,8.5695,606.033,2296.23,2295.55,8.56958,0.946384
1152.0,8.56194,606.693,2314.18,2313.47,8.56337,0.940174
1164.0,8.5607,607.353,2332.09,2331.36,8.56155,0.938354
1176.0,8.55522,608.012,2349.96,2349.21,8.55522,0.932024
1188.0,8.55061,608.672,2367.79,2367.02,8.55061,0.927414
1200.0,8.54454,609.332,2385.59,2384.79,8.54454,0.921344
1212.0,8.5386,609.992,2403.34,2402.52,8.53895,0.915754
1224.0,8.53227,610.652,2421.06,2420.22,8.53227,0.909074
1236.0,8.52723,611.312,2438.74,2437.87,8.52718,0.903984
1248.0,8.52379,611.972,2456.38,2455.49,8.52211,0.898914
1260.0,8.51427,612.632,2473.98,2473.07,8.51427,0.891074
1272.0,8.50787,613.292,2491.55,2490.61,8.50787,0.884674
1284.0,8.49947,613.952,2509.07,2508.12,8.49947,0.876274
1296.0,8.493,614.612,2526.56,2525.59,8.493,0.869804
1308.0,8.48237,615.272,2544.02,2543.01,8.48237,0.859174
1320.0,8.47355,615.932,2561.43,2560.41,8.47355,0.850354
1332.0,8.46305,616.592,2578.81,2577.76,8.46305,0.839854
1344.0,8.45911,617.252,2596.15,2595.08,8.45851,0.835314
1356.0,8.45175,617.912,2613.45,2612.36,8.45175,0.828554
1368.0,8.43969,618.572,2630.72,2629.6,8.43969,0.816494
1380.0,8.43025,619.232,2647.95,2646.81,8.43025,0.807054
1392.0,8.42178,619.892,2665.14,2663.98,8.42178,0.798584
1404.0,8.41633,620.551,2682.29,2681.12,8.41584,0.792644
1416.0,8.40929,621.211,2699.41,2698.21,8.40929,0.786094
1428.0,8.40231,621.871,2716.5,2715.27,8.40189,0.778694
1440.0,8.39491,622.531,2733.54,2732.3,8.39581,0.772614
1452.0,8.38733,623.191,2750.56,2749.29,8.38829,0.765094
1464.0,8.38537,623.851,2767.53,2766.24,8.3832,0.760004
1476.0,8.37625,624.511,2784.47,2783.16,8.37625,0.753054
1488.0,8.37082,625.171,2801.37,2800.04,8.37079,0.747594
1500.0,8.36402,625.831,2818.24,2816.89,8.36402,0.740824
1512.0,8.35877,626.491,2835.07,2833.7,8.35827,0.735074
1524.0,8.34976,627.151,2851.87,2850.47,8.35036,0.727164
1536.0,8.34595,627.811,2868.63,2867.21,8.34595,0.722754
1548.0,8.33958,628.471,2885.36,2883.92,8.33958,0.716384
1560.0,8.3362,629.131,2902.05,2900.59,8.33619,0.712994
1572.0,8.32788,629.791,2918.7,2917.22,8.32757,0.704374
1584.0,8.32066,630.451,2935.32,2933.82,8.32046,0.697264
1596.0,8.32375,631.111,2951.91,2950.38,8.32375,0.700554
1608.0,8.37248,631.771,2968.46,2966.92,8.37248,0.749284
1620.0,8.31388,632.431,2984.98,2983.41,8.31388,0.690684
1632.0,8.30054,633.091,3001.46,2999.87,8.30054,0.677344
1644.0,8.2712,633.75,3017.91,3016.3,8.2712,0.648004
1656.0,8.24687,634.41,3034.33,3032.69,8.24703,0.623834
1668.0,8.23489,635.07,3050.71,3049.05,8.23489,0.611694
1680.0,8.22408,635.73,3067.05,3065.38,8.22408,0.600884
1692.0,8.21171,636.39,3083.36,3081.67,8.21171,0.588514
1704.0,8.2031,637.05,3099.64,3097.93,8.2031,0.579904
1716.0,8.19491,637.71,3115.89,3114.15,8.19491,0.571714
1728.0,8.19209,638.37,3132.1,3130.34,8.19196,0.568764
1740.0,8.18528,639.03,3148.28,3146.5,8.18528,0.562084
1752.0,8.1718,639.69,3164.42,3162.62,8.1718,0.548604
1764.0,8.15786,640.35,3180.53,3178.71,8.15761,0.534414
1776.0,8.14589,641.01,3196.61,3194.77,8.14595,0.522754
1788.0,8.13575,641.67,3212.65,3210.79,8.13575,0.512554
1800.0,8.12749,642.33,3228.67,3226.78,8.12749,0.504294
1812.0,8.11768,642.99,3244.65,3242.74,8.11768,0.494484
1824.0,8.10694,643.65,3260.59,3258.67,8.10791,0.484714
1836.0,8.09923,644.31,3276.51,3274.56,8.09934,0.476144
1848.0,8.0928,644.97,3292.39,3290.42,8.0928,0.469604
1860.0,8.08249,645.63,3308.23,3306.25,8.08259,0.459394
1872.0,8.07824,646.29,3324.05,3322.05,8.07824,0.455044
1884.0,8.07045,646.949,3339.83,3337.81,8.0704,0.447204
1896.0,8.06195,647.609,3355.59,3353.54,8.06195,0.438754
1908.0,8.05535,648.269,3371.31,3369.24,8.05535,0.432154
1920.0,8.05021,648.929,3386.99,3384.91,8.04978,0.426584
1932.0,8.04121,649.589,3402.65,3400.54,8.04149,0.418294
1944.0,8.03224,650.249,3418.27,3416.15,8.03224,0.409044
1956.0,8.026,650.909,3433.87,3431.72,8.02594,0.402744
1968.0,8.01868,651.569,3449.43,3447.26,8.01898,0.395784
1980.0,8.01009,652.229,3464.96,3462.77,8.00988,0.386684
1992.0,8.00287,652.889,3480.45,3478.25,8.00331,0.380114
2004.0,7.99534,653.549,3495.92,3493.69,7.99534,0.372144
2016.0,7.98647,654.209,3511.36,3509.11,7.98707,0.363874
2028.0,7.98213,654.869,3526.76,3524.49,7.98213,0.358934
2040.0,7.97615,655.529,3542.13,3539.85,7.97615,0.352954
2047.0,7.97179,655.914,3551.09,3548.79,7.97159,0.348394

File: 2024-09-03_glycinepowder_n_n_y_solid_10000_0_5.csv
Pixels #,Intensity (a.u.),Wavelength (nm),Raman shift (cm-1),Raman shift (cm-1) adjusted,Filtered Intensity (a.u.),Baselined Filtered Intensity (a.u.)
0.0,0.795529,543.337,392.223,393.994,0.795258,-0.0108126
12.0,0.795719,543.997,414.551,416.293,0.795719,-0.0103523
24.0,0.793847,544.657,436.825,438.537,0.794217,-0.0118565
36.0,0.795928,545.317,459.044,460.728,0.795941,-0.0101361
48.0,0.797916,545.977,481.21,482.866,0.797916,-0.00816613
60.0,0.813355,546.637,503.323,504.95,0.813355,0.00726683
72.0,0.83604,547.297,525.382,526.981,0.83604,0.0299469
84.0,0.858217,547.957,547.388,548.958,0.858217,0.0521228
96.0,0.864208,548.617,569.341,570.883,0.863384,0.0572898
108.0,0.864007,549.277,591.241,592.755,0.864007,0.0579128
120.0,0.86475,549.937,613.089,614.575,0.864461,0.0583668
132.0,0.863044,550.597,634.884,636.342,0.863044,0.0569498
144.0,0.866466,551.257,656.627,658.057,0.866186,0.0600918
156.0,0.872644,551.917,678.319,679.72,0.872644,0.0665498
168.0,0.886273,552.577,699.958,701.332,0.886273,0.0801788
180.0,0.907277,553.237,721.546,722.892,0.907277,0.101183
192.0,0.943898,553.897,743.082,744.4,0.943898,0.137804
204.0,0.998603,554.557,764.567,765.858,0.998603,0.192509
216.0,1.08525,555.217,786.001,787.264,1.08525,0.279156
228.0,1.20157,555.876,807.384,808.62,1.20157,0.395476
240.0,1.34111,556.536,828.716,829.924,1.34111,0.535016
252.0,1.46933,557.196,849.998,851.179,1.46933,0.663236
264.0,1.56292,557.856,871.23,872.383,1.56292,0.756826
276.0,1.65861,558.516,892.411,893.537,1.658,0.851906
288.0,1.63714,559.176,913.542,914.641,1.63734,0.831246
300.0,1.64192,559.836,934.624,935.695,1.64269,0.836596
312.0,1.64384,560.496,955.656,956.7,1.64333,0.837236
324.0,1.64863,561.156,976.638,977.655,1.64931,0.843216
336.0,1.65989,561.816,997.571,998.562,1.65946,0.853366
348.0,1.67764,562.476,1018.45,1019.42,1.67764,0.871546
360.0,1.70221,563.136,1039.29,1040.23,1.70221,0.896116
372.0,1.70812,563.796,1060.08,1060.99,1.70812,0.902026
384.0,1.71282,564.456,1080.81,1081.7,1.71282,0.906726
396.0,1.7218,565.116,1101.5,1102.36,1.7218,0.915706
408.0,1.72357,565.776,1122.14,1122.97,1.72386,0.917766
420.0,1.73563,566.436,1142.74,1143.54,1.73449,0.928396
432.0,1.73457,567.096,1163.28,1164.06,1.73457,0.928476
444.0,1.7427,567.756,1183.78,1184.53,1.7427,0.936606
456.0,1.74998,568.416,1204.23,1204.95,1.74998,0.943886
468.0,1.75754,569.075,1224.63,1225.33,1.75768,0.951586
480.0,1.76129,569.735,1244.99,1245.66,1.76129,0.955196
492.0,1.76825,570.395,1265.29,1265.94,1.76729,0.961196
504.0,1.77571,571.055,1285.55,1286.17,1.77571,0.969616
516.0,1.80105,571.715,1305.77,1306.36,1.80105,0.994956
528.0,1.86002,572.375,1325.94,1326.5,1.86002,1.05393
540.0,1.79457,573.035,1346.06,1346.6,1.79485,0.988756
552.0,1.79947,573.695,1366.13,1366.65,1.79886,0.992766
564.0,1.81155,574.355,1386.16,1386.65,1.81155,1.00546
576.0,1.84113,575.015,1406.14,1406.61,1.84113,1.03504
588.0,1.82128,575.675,1426.08,1426.52,1.82224,1.01615
600.0,1.82943,576.335,1445.97,1446.38,1.82892,1.02283
612.0,1.82088,576.995,1465.82,1466.2,1.82088,1.01479
624.0,1.82114,577.655,1485.62,1485.98,1.82114,1.01505
636.0,1.83417,578.315,1505.37,1505.71,1.83399,1.0279
648.0,1.83292,578.975,1525.08,1525.39,1.83292,1.02683
660.0,1.83453,579.635,1544.75,1545.03,1.83453,1.02844
672.0,1.85011,580.295,1564.37,1564.63,1.85011,1.04402
684.0,1.83645,580.955,1583.94,1584.18,1.83645,1.03036
696.0,1.83599,581.614,1603.47,1603.68,1.83599,1.0299
708.0,1.83809,582.274,1622.96,1623.15,1.83749,1.0314
720.0,1.83419,582.934,1642.4,1642.56,1.83419,1.0281
732.0,1.83911,583.594,1661.8,1661.94,1.83932,1.03323
744.0,1.83522,584.254,1681.16,1681.27,1.83651,1.03042
756.0,1.83816,584.914,1700.47,1700.55,1.83651,1.03042
768.0,1.83865,585.574,1719.74,1719.8,1.83865,1.03256
780.0,1.83462,586.234,1738.96,1739,1.83531,1.02922
792.0,1.83693,586.894,1758.14,1758.15,1.83693,1.03084
804.0,1.83446,587.554,1777.28,1777.27,1.83524,1.02915
816.0,1.83295,588.214,1796.38,1796.34,1.83343,1.02734
828.0,1.83448,588.874,1815.43,1815.37,1.83496,1.02887
840.0,1.83544,589.534,1834.44,1834.35,1.83543,1.02934
852.0,1.83618,590.194,1853.41,1853.29,1.83532,1.02923
864.0,1.83591,590.854,1872.33,1872.2,1.83591,1.02982
876.0,1.83337,591.514,1891.21,1891.05,1.83363,1.02754
888.0,1.83419,592.174,1910.05,1909.87,1.83365,1.02756
900.0,1.83019,592.834,1928.85,1928.64,1.83019,1.0241
912.0,1.8264,593.494,1947.61,1947.38,1.82648,1.02039
924.0,1.82165,594.154,1966.33,1966.07,1.82165,1.01556
936.0,1.81535,594.813,1985,1984.72,1.81535,1.00926
948.0,1.81131,595.473,2003.63,2003.33,1.81167,1.00558
960.0,1.80644,596.133,2022.22,2021.89,1.80644,1.00035
972.0,1.80243,596.793,2040.77,2040.42,1.80111,0.995016
984.0,1.79284,597.453,2059.28,2058.91,1.79329,0.987196
996.0,1.78715,598.113,2077.75,2077.35,1.78685,0.980756
1008.0,1.78092,598.773,2096.18,2095.75,1.78026,0.974166
1020.0,1.77602,599.433,2114.56,2114.12,1.77499,0.968896
1032.0,1.7706,600.093,2132.91,2132.44,1.7706,0.964506
1044.0,1.76318,600.753,2151.22,2150.72,1.76318,0.957086
1056.0,1.75519,601.413,2169.48,2168.96,1.7558,0.949706
1068.0,1.75149,602.073,2187.71,2187.17,1.74969,0.943596
1080.0,1.74546,602.733,2205.89,2205.33,1.74541,0.939316
1092.0,1.74199,603.393,2224.04,2223.45,1.74199,0.935896
1104.0,1.73797,604.053,2242.15,2241.54,1.73797,0.931876
1116.0,1.73303,604.713,2260.21,2259.58,1.73392,0.927826
1128.0,1.72688,605.373,2278.24,2277.58,1.72688,0.920786
1140.0,1.72233,606.033,2296.23,2295.55,1.72233,0.916236
1152.0,1.7175,606.693,2314.18,2313.47,1.71705,0.910956
1164.0,1.71584,607.353,2332.09,2331.36,1.71495,0.908856
1176.0,1.70803,608.012,2349.96,2349.21,1.70804,0.901946
1188.0,1.70355,608.672,2367.79,2367.02,1.70355,0.897456
1200.0,1.69621,609.332,2385.59,2384.79,1.6964,0.890306
1212.0,1.69107,609.992,2403.34,2402.52,1.69197,0.885876
1224.0,1.68748,610.652,2421.06,2420.22,1.68748,0.881386
1236.0,1.68086,611.312,2438.74,2437.87,1.68016,0.874066
1248.0,1.67632,611.972,2456.38,2455.49,1.67632,0.870226
1260.0,1.66859,612.632,2473.98,2473.07,1.66859,0.862496
1272.0,1.66117,613.292,2491.55,2490.61,1.66117,0.855076
1284.0,1.65444,613.952,2509.07,2508.12,1.65511,0.849016
1296.0,1.64788,614.612,2526.56,2525.59,1.64788,0.841786
1308.0,1.63646,615.272,2544.02,2543.01,1.63797,0.831876
1320.0,1.63077,615.932,2561.43,2560.41,1.63077,0.824676
1332.0,1.62176,616.592,2578.81,2577.76,1.62176,0.815666
1344.0,1.61817,617.252,2596.15,2595.08,1.61659,0.810496
1356.0,1.60866,617.912,2613.45,2612.36,1.60866,0.802566
1368.0,1.59786,618.572,2630.72,2629.6,1.59786,0.791766
1380.0,1.59193,619.232,2647.95,2646.81,1.59193,0.785836
1392.0,1.58331,619.892,2665.14,2663.98,1.58331,0.777216
1404.0,1.57578,620.551,2682.29,2681.12,1.57578,0.769686
1416.0,1.57088,621.211,2699.41,2698.21,1.57,0.763906
1428.0,1.5625,621.871,2716.5,2715.27,1.5625,0.756406
1440.0,1.55798,622.531,2733.54,2732.3,1.55902,0.752926
1452.0,1.54991,623.191,2750.56,2749.29,1.55065,0.744556
1464.0,1.54681,623.851,2767.53,2766.24,1.54618,0.740086
1476.0,1.53959,624.511,2784.47,2783.16,1.53959,0.733496
1488.0,1.53263,625.171,2801.37,2800.04,1.533,0.726906
1500.0,1.52783,625.831,2818.24,2816.89,1.52783,0.721736
1512.0,1.52199,626.491,2835.07,2833.7,1.52199,0.715896
1524.0,1.51446,627.151,2851.87,2850.47,1.51493,0.708836
1536.0,1.5118,627.811,2868.63,2867.21,1.51101,0.704916
1548.0,1.50583,628.471,2885.36,2883.92,1.50583,0.699736
1560.0,1.50177,629.131,2902.05,2900.59,1.50133,0.695236
1572.0,1.49212,629.791,2918.7,2917.22,1.49197,0.685876
1584.0,1.48691,630.451,2935.32,2933.82,1.48691,0.680816
1596.0,1.48861,631.111,2951.91,2950.38,1.48861,0.682516
1608.0,1.53543,631.771,2968.46,2966.92,1.53543,0.729336
1620.0,1.48051,632.431,2984.98,2983.41,1.48051,0.674416
1632.0,1.47067,633.091,3001.46,2999.87,1.47022,0.664126
1644.0,1.44001,633.75,3017.91,3016.3,1.44001,0.633916
1656.0,1.41787,634.41,3034.33,3032.69,1.41787,0.611776
1668.0,1.40692,635.07,3050.71,3049.05,1.40692,0.600826
1680.0,1.3946,635.73,3067.05,3065.38,1.3946,0.588506
1692.0,1.38527,636.39,3083.36,3081.67,1.38527,0.579176
1704.0,1.3761,637.05,3099.64,3097.93,1.37619,0.570096
1716.0,1.3697,637.71,3115.89,3114.15,1.3697,0.563606
1728.0,1.36437,638.37,3132.1,3130.34,1.36482,0.558726
1740.0,1.35843,639.03,3148.28,3146.5,1.35843,0.552336
1752.0,1.3451,639.69,3164.42,3162.62,1.3451,0.539006
1764.0,1.33272,640.35,3180.53,3178.71,1.33272,0.526626
1776.0,1.32237,641.01,3196.61,3194.77,1.32237,0.516276
1788.0,1.31253,641.67,3212.65,3210.79,1.31253,0.506436
1800.0,1.30322,642.33,3228.67,3226.78,1.30322,0.497126
1812.0,1.29493,642.99,3244.65,3242.74,1.29493,0.488836
1824.0,1.28631,643.65,3260.59,3258.67,1.28631,0.480216
1836.0,1.27614,644.31,3276.51,3274.56,1.27669,0.470596
1848.0,1.2689,644.97,3292.39,3290.42,1.2689,0.462806
1860.0,1.26095,645.63,3308.23,3306.25,1.26048,0.454386
1872.0,1.25535,646.29,3324.05,3322.05,1.25535,0.449256
1884.0,1.24419,646.949,3339.83,3337.81,1.24557,0.439476
1896.0,1.2386,647.609,3355.59,3353.54,1.23947,0.433376
1908.0,1.23114,648.269,3371.31,3369.24,1.23114,0.425046
1920.0,1.22668,648.929,3386.99,3384.91,1.22646,0.420366
1932.0,1.21834,649.589,3402.65,3400.54,1.21834,0.412246
1944.0,1.20724,650.249,3418.27,3416.15,1.20745,0.401356
1956.0,1.20069,650.909,3433.87,3431.72,1.20069,0.394596
1968.0,1.19408,651.569,3449.43,3447.26,1.19408,0.387986
1980.0,1.18688,652.229,3464.96,3462.77,1.18688,0.380786
1992.0,1.18084,652.889,3480.45,3478.25,1.1814,0.375306
2004.0,1.17459,653.549,3495.92,3493.69,1.17424,0.368146
2016.0,1.16583,654.209,3511.36,3509.11,1.16673,0.360636
2028.0,1.15732,654.869,3526.76,3524.49,1.15841,0.352316
2040.0,1.15426,655.529,3542.13,3539.85,1.15426,0.348166
2047.0,1.15084,655.914,3551.09,3548.79,1.15084,0.344746