Folder: 2025-diyraman-bio/data/processed/processed_data/2024-09-03 (part 9)

File: 2024-09-03_glycinepowder_n_n_y_solid_10000_0_20.csv
Pixels #,Intensity (a.u.),Wavelength (nm),Raman shift (cm-1),Raman shift (cm-1) adjusted,Filtered Intensity (a.u.),Baselined Filtered Intensity (a.u.)
0.0,0.795398,543.337,392.223,393.994,0.795168,-0.00866516
12.0,0.79533,543.997,414.551,416.293,0.79533,-0.00850378
24.0,0.79396,544.657,436.825,438.537,0.794014,-0.00982155
36.0,0.795739,545.317,459.044,460.728,0.795366,-0.00847256
48.0,0.797545,545.977,481.21,482.866,0.797545,-0.00629773
60.0,0.811296,546.637,503.323,504.95,0.811296,0.00744827
72.0,0.830331,547.297,525.382,526.981,0.830331,0.0264793
84.0,0.849579,547.957,547.388,548.958,0.849579,0.0457266
96.0,0.854408,548.617,569.341,570.883,0.854229,0.0503766
108.0,0.855353,549.277,591.241,592.755,0.855353,0.0515006
120.0,0.856168,549.937,613.089,614.575,0.855552,0.0516996
132.0,0.853952,550.597,634.884,636.342,0.853952,0.0500996
144.0,0.856874,551.257,656.627,658.057,0.856864,0.0530116
156.0,0.863055,551.917,678.319,679.72,0.863055,0.0592026
168.0,0.874874,552.577,699.958,701.332,0.874874,0.0710216
180.0,0.893194,553.237,721.546,722.892,0.893194,0.0893416
192.0,0.924475,553.897,743.082,744.4,0.924475,0.120623
204.0,0.972637,554.557,764.567,765.858,0.972637,0.168785
216.0,1.04775,555.217,786.001,787.264,1.04775,0.243898
228.0,1.14985,555.876,807.384,808.62,1.14985,0.345998
240.0,1.27192,556.536,828.716,829.924,1.27192,0.468068
252.0,1.38548,557.196,849.998,851.179,1.38548,0.581628
264.0,1.47058,557.856,871.23,872.383,1.47058,0.666728
276.0,1.5606,558.516,892.411,893.537,1.56034,0.756488
288.0,1.53607,559.176,913.542,914.641,1.53607,0.732218
300.0,1.54042,559.836,934.624,935.695,1.54042,0.736568
312.0,1.54078,560.496,955.656,956.7,1.54076,0.736908
324.0,1.5464,561.156,976.638,977.655,1.54612,0.742268
336.0,1.55567,561.816,997.571,998.562,1.55567,0.751818
348.0,1.57297,562.476,1018.45,1019.42,1.57297,0.769118
360.0,1.59639,563.136,1039.29,1040.23,1.59627,0.792418
372.0,1.59708,563.796,1060.08,1060.99,1.59677,0.792918
384.0,1.60221,564.456,1080.81,1081.7,1.60261,0.798758
396.0,1.61081,565.116,1101.5,1102.36,1.61042,0.806568
408.0,1.61268,565.776,1122.14,1122.97,1.61268,0.808828
420.0,1.62327,566.436,1142.74,1143.54,1.62274,0.818888
432.0,1.62158,567.096,1163.28,1164.06,1.62158,0.817728
444.0,1.62942,567.756,1183.78,1184.53,1.6293,0.825448
456.0,1.63596,568.416,1204.23,1204.95,1.63596,0.832108
468.0,1.64218,569.075,1224.63,1225.33,1.64218,0.838328
480.0,1.64712,569.735,1244.99,1245.66,1.64712,0.843268
492.0,1.6515,570.395,1265.29,1265.94,1.6515,0.847648
504.0,1.65832,571.055,1285.55,1286.17,1.65832,0.854468
516.0,1.68209,571.715,1305.77,1306.36,1.68209,0.878238
528.0,1.74049,572.375,1325.94,1326.5,1.74049,0.936638
540.0,1.67528,573.035,1346.06,1346.6,1.67567,0.871818
552.0,1.68047,573.695,1366.13,1366.65,1.68035,0.876498
564.0,1.69212,574.355,1386.16,1386.65,1.69212,0.888268
576.0,1.71998,575.015,1406.14,1406.61,1.71998,0.916128
588.0,1.70091,575.675,1426.08,1426.52,1.70135,0.897498
600.0,1.70764,576.335,1445.97,1446.38,1.7078,0.903948
612.0,1.70012,576.995,1465.82,1466.2,1.70012,0.896268
624.0,1.70117,577.655,1485.62,1485.98,1.70136,0.897508
636.0,1.71103,578.315,1505.37,1505.71,1.71103,0.907178
648.0,1.71031,578.975,1525.08,1525.39,1.7109,0.907048
660.0,1.71277,579.635,1544.75,1545.03,1.71252,0.908668
672.0,1.72584,580.295,1564.37,1564.63,1.72456,0.920708
684.0,1.71333,580.955,1583.94,1584.18,1.71333,0.909478
696.0,1.71223,581.614,1603.47,1603.68,1.71206,0.908208
708.0,1.715,582.274,1622.96,1623.15,1.71483,0.910978
720.0,1.70986,582.934,1642.4,1642.56,1.71014,0.906288
732.0,1.71615,583.594,1661.8,1661.94,1.71615,0.912298
744.0,1.71428,584.254,1681.16,1681.27,1.71401,0.910158
756.0,1.7132,584.914,1700.47,1700.55,1.71274,0.908888
768.0,1.71465,585.574,1719.74,1719.8,1.71372,0.909868
780.0,1.71299,586.234,1738.96,1739,1.71299,0.909138
792.0,1.71374,586.894,1758.14,1758.15,1.71374,0.909888
804.0,1.713,587.554,1777.28,1777.27,1.713,0.909148
816.0,1.71095,588.214,1796.38,1796.34,1.71095,0.907098
828.0,1.71357,588.874,1815.43,1815.37,1.71357,0.909718
840.0,1.71219,589.534,1834.44,1834.35,1.71237,0.908518
852.0,1.71436,590.194,1853.41,1853.29,1.71436,0.910508
864.0,1.71598,590.854,1872.33,1872.2,1.71598,0.912128
876.0,1.71288,591.514,1891.21,1891.05,1.71288,0.909028
888.0,1.71163,592.174,1910.05,1909.87,1.71201,0.908158
900.0,1.70914,592.834,1928.85,1928.64,1.70914,0.905288
912.0,1.707,593.494,1947.61,1947.38,1.707,0.903148
924.0,1.70211,594.154,1966.33,1966.07,1.70185,0.897998
936.0,1.69765,594.813,1985,1984.72,1.69765,0.893798
948.0,1.69419,595.473,2003.63,2003.33,1.69419,0.890338
960.0,1.68957,596.133,2022.22,2021.89,1.68957,0.885718
972.0,1.68556,596.793,2040.77,2040.42,1.68556,0.881708
984.0,1.67937,597.453,2059.28,2058.91,1.67937,0.875518
996.0,1.67378,598.113,2077.75,2077.35,1.67355,0.869698
1008.0,1.6687,598.773,2096.18,2095.75,1.66811,0.864258
1020.0,1.66319,599.433,2114.56,2114.12,1.66319,0.859338
1032.0,1.65894,600.093,2132.91,2132.44,1.65894,0.855088
1044.0,1.65276,600.753,2151.22,2150.72,1.65276,0.848908
1056.0,1.64677,601.413,2169.48,2168.96,1.64691,0.843058
1068.0,1.64178,602.073,2187.71,2187.17,1.64178,0.837928
1080.0,1.6379,602.733,2205.89,2205.33,1.6379,0.834048
1092.0,1.63431,603.393,2224.04,2223.45,1.63435,0.830498
1104.0,1.63191,604.053,2242.15,2241.54,1.63191,0.828058
1116.0,1.62778,604.713,2260.21,2259.58,1.62789,0.824038
1128.0,1.62209,605.373,2278.24,2277.58,1.62209,0.818238
1140.0,1.619,606.033,2296.23,2295.55,1.619,0.815148
1152.0,1.61341,606.693,2314.18,2313.47,1.61359,0.809738
1164.0,1.61085,607.353,2332.09,2331.36,1.6106,0.806748
1176.0,1.60696,608.012,2349.96,2349.21,1.60726,0.803408
1188.0,1.6031,608.672,2367.79,2367.02,1.6031,0.799248
1200.0,1.59598,609.332,2385.59,2384.79,1.59605,0.792198
1212.0,1.59218,609.992,2403.34,2402.52,1.5926,0.788748
1224.0,1.58659,610.652,2421.06,2420.22,1.58659,0.782738
1236.0,1.58188,611.312,2438.74,2437.87,1.58188,0.778028
1248.0,1.57939,611.972,2456.38,2455.49,1.57869,0.774838
1260.0,1.57202,612.632,2473.98,2473.07,1.57224,0.768388
1272.0,1.56534,613.292,2491.55,2490.61,1.56534,0.761488
1284.0,1.56088,613.952,2509.07,2508.12,1.56087,0.757018
1296.0,1.55546,614.612,2526.56,2525.59,1.55546,0.751608
1308.0,1.54759,615.272,2544.02,2543.01,1.54759,0.743738
1320.0,1.53979,615.932,2561.43,2560.41,1.53979,0.735938
1332.0,1.53236,616.592,2578.81,2577.76,1.53236,0.728508
1344.0,1.52885,617.252,2596.15,2595.08,1.52819,0.724338
1356.0,1.52127,617.912,2613.45,2612.36,1.52127,0.717418
1368.0,1.51216,618.572,2630.72,2629.6,1.51216,0.708308
1380.0,1.50495,619.232,2647.95,2646.81,1.50495,0.701098
1392.0,1.49802,619.892,2665.14,2663.98,1.49818,0.694328
1404.0,1.49172,620.551,2682.29,2681.12,1.49218,0.688328
1416.0,1.48856,621.211,2699.41,2698.21,1.48856,0.684708
1428.0,1.48252,621.871,2716.5,2715.27,1.48242,0.678568
1440.0,1.47806,622.531,2733.54,2732.3,1.47806,0.674208
1452.0,1.47046,623.191,2750.56,2749.29,1.47086,0.667008
1464.0,1.46679,623.851,2767.53,2766.24,1.46616,0.662308
1476.0,1.46132,624.511,2784.47,2783.16,1.46132,0.657468
1488.0,1.4558,625.171,2801.37,2800.04,1.4558,0.651948
1500.0,1.45109,625.831,2818.24,2816.89,1.45109,0.647238
1512.0,1.44522,626.491,2835.07,2833.7,1.44522,0.641368
1524.0,1.44014,627.151,2851.87,2850.47,1.44032,0.636468
1536.0,1.4376,627.811,2868.63,2867.21,1.43716,0.633308
1548.0,1.43272,628.471,2885.36,2883.92,1.43272,0.628868
1560.0,1.42946,629.131,2902.05,2900.59,1.42923,0.625378
1572.0,1.4205,629.791,2918.7,2917.22,1.42071,0.616858
1584.0,1.41666,630.451,2935.32,2933.82,1.41666,0.612808
1596.0,1.42037,631.111,2951.91,2950.38,1.42037,0.616518
1608.0,1.46749,631.771,2968.46,2966.92,1.46749,0.663638
1620.0,1.413,632.431,2984.98,2983.41,1.413,0.609148
1632.0,1.40449,633.091,3001.46,2999.87,1.40449,0.600638
1644.0,1.37541,633.75,3017.91,3016.3,1.37541,0.571558
1656.0,1.35369,634.41,3034.33,3032.69,1.35369,0.549838
1668.0,1.34336,635.07,3050.71,3049.05,1.34336,0.539508
1680.0,1.33296,635.73,3067.05,3065.38,1.33296,0.529108
1692.0,1.32428,636.39,3083.36,3081.67,1.32428,0.520428
1704.0,1.31672,637.05,3099.64,3097.93,1.31672,0.512868
1716.0,1.31055,637.71,3115.89,3114.15,1.31055,0.506698
1728.0,1.30669,638.37,3132.1,3130.34,1.30702,0.503168
1740.0,1.30061,639.03,3148.28,3146.5,1.30061,0.496758
1752.0,1.2889,639.69,3164.42,3162.62,1.2889,0.485048
1764.0,1.27762,640.35,3180.53,3178.71,1.27762,0.473768
1776.0,1.26827,641.01,3196.61,3194.77,1.26868,0.464828
1788.0,1.25983,641.67,3212.65,3210.79,1.25983,0.455978
1800.0,1.25145,642.33,3228.67,3226.78,1.25145,0.447598
1812.0,1.24351,642.99,3244.65,3242.74,1.24351,0.439658
1824.0,1.23472,643.65,3260.59,3258.67,1.23472,0.430868
1836.0,1.22736,644.31,3276.51,3274.56,1.22736,0.423508
1848.0,1.22048,644.97,3292.39,3290.42,1.22048,0.416628
1860.0,1.21129,645.63,3308.23,3306.25,1.21129,0.407438
1872.0,1.2073,646.29,3324.05,3322.05,1.2073,0.403448
1884.0,1.19849,646.949,3339.83,3337.81,1.1987,0.394848
1896.0,1.19259,647.609,3355.59,3353.54,1.1932,0.389348
1908.0,1.18668,648.269,3371.31,3369.24,1.18668,0.382828
1920.0,1.18026,648.929,3386.99,3384.91,1.17994,0.376088
1932.0,1.17365,649.589,3402.65,3400.54,1.17365,0.369798
1944.0,1.16474,650.249,3418.27,3416.15,1.16474,0.360888
1956.0,1.15908,650.909,3433.87,3431.72,1.15908,0.355228
1968.0,1.15254,651.569,3449.43,3447.26,1.15254,0.348688
1980.0,1.14613,652.229,3464.96,3462.77,1.14613,0.342278
1992.0,1.13966,652.889,3480.45,3478.25,1.13966,0.335808
2004.0,1.13399,653.549,3495.92,3493.69,1.13392,0.330068
2016.0,1.12688,654.209,3511.36,3509.11,1.12742,0.323568
2028.0,1.11984,654.869,3526.76,3524.49,1.11984,0.315988
2040.0,1.11558,655.529,3542.13,3539.85,1.11556,0.311708
2047.0,1.1114,655.914,3551.09,3548.79,1.1114,0.307548

File: 2024-09-03_glycinepowder_n_y_y_solid_100_0_5.csv
Pixels #,Intensity (a.u.),Wavelength (nm),Raman shift (cm-1),Raman shift (cm-1) adjusted,Filtered Intensity (a.u.),Baselined Filtered Intensity (a.u.)
0.0,0.0264042,543.337,392.223,393.994,0.0146564,0.0143827
13.0,0.00715696,544.052,416.409,418.148,0.0116717,0.011398
26.0,0.00658428,544.767,440.532,442.24,0.00667262,0.00639889
39.0,0.00275377,545.482,464.591,466.268,0.0105738,0.0103001
52.0,0.00894179,546.197,488.587,490.233,0.00195315,0.0016794
65.0,0.0104387,546.912,512.521,514.136,0.011724,0.0114502
78.0,0.0265899,547.627,536.392,537.976,0.0268026,0.0265288
91.0,0.0332488,548.342,560.2,561.754,0.0346597,0.0343859
104.0,0.042923,549.057,583.947,585.47,0.042923,0.0426492
117.0,0.0341699,549.772,607.632,609.125,0.0341699,0.0338961
130.0,0.0234958,550.487,631.255,632.718,0.0233016,0.0230278
143.0,0.0328023,551.202,654.818,656.25,0.0328023,0.0325285
156.0,0.0,551.917,678.319,679.72,0.0143402,0.0140664
169.0,0.0097225,552.632,701.759,703.13,0.0099737,0.00969986
182.0,0.000442512,553.347,725.139,726.48,0.00152974,0.00125591
195.0,0.0175514,554.062,748.458,749.769,0.0189453,0.0186715
208.0,0.0239299,554.777,771.717,772.999,0.0224338,0.02216
221.0,0.0370492,555.491,794.917,796.168,0.0370492,0.0367754
234.0,0.0890559,556.206,818.057,819.278,0.0890559,0.0887821
247.0,0.134697,556.921,841.137,842.329,0.134697,0.134423
260.0,0.169147,557.636,864.158,865.321,0.169649,0.169375
273.0,0.203878,558.351,887.12,888.253,0.19382,0.193546
286.0,0.104313,559.066,910.024,911.127,0.106579,0.106305
299.0,0.0590933,559.781,932.869,933.943,0.0673536,0.0670799
312.0,0.0640249,560.496,955.656,956.7,0.0640249,0.0637512
325.0,0.0131511,561.211,978.384,979.4,0.0137182,0.0134446
338.0,0.0512151,561.926,1001.06,1002.04,0.0489631,0.0486895
351.0,0.031219,562.641,1023.67,1024.63,0.031219,0.0309454
364.0,0.0334224,563.356,1046.22,1047.15,0.0334224,0.0331488
377.0,0.0232145,564.071,1068.72,1069.62,0.0232145,0.022941
390.0,0.0485045,564.786,1091.16,1092.03,0.0462415,0.045968
403.0,0.0355882,565.501,1113.55,1114.39,0.0255413,0.0252678
416.0,0.0,566.216,1135.88,1136.69,0.00952078,0.00924731
429.0,0.0150204,566.931,1158.15,1158.93,0.0194009,0.0191274
442.0,0.014637,567.646,1180.37,1181.12,0.0298785,0.0296051
455.0,0.0111924,568.361,1202.53,1203.25,0.0246572,0.0243838
468.0,0.0263196,569.075,1224.63,1225.33,0.0243682,0.0240948
481.0,0.0418826,569.79,1246.68,1247.35,0.0343501,0.0340767
494.0,0.0112878,570.505,1268.67,1269.31,0.0142242,0.0139509
507.0,0.0129435,571.22,1290.61,1291.22,0.0129435,0.0126702
520.0,0.0779351,571.935,1312.5,1313.08,0.0779351,0.0776618
533.0,0.03926,572.65,1334.32,1334.88,0.03926,0.0389867
546.0,0.0533236,573.365,1356.1,1356.63,0.0354727,0.0351994
559.0,0.00766183,574.08,1377.82,1378.32,0.0121492,0.011876
572.0,0.0200607,574.795,1399.49,1399.96,0.0239937,0.0237205
585.0,0.0306121,575.51,1421.1,1421.54,0.0306121,0.0303389
598.0,0.0185519,576.225,1442.66,1443.07,0.0185519,0.0182787
611.0,0.0179088,576.94,1464.16,1464.55,0.0139195,0.0136463
624.0,0.00684622,577.655,1485.62,1485.98,0.0255925,0.0253193
637.0,0.0139993,578.37,1507.01,1507.35,0.0135903,0.0133171
650.0,0.0105287,579.085,1528.36,1528.67,0.0139033,0.0136301
663.0,0.028756,579.8,1549.65,1549.93,0.028756,0.0284828
676.0,0.0284517,580.515,1570.9,1571.15,0.0170107,0.0167375
689.0,0.0219555,581.23,1592.09,1592.31,0.0219555,0.0216823
702.0,0.0315561,581.944,1613.22,1613.42,0.0278154,0.0275422
715.0,0.0306483,582.659,1634.31,1634.48,0.0303145,0.0300413
728.0,0.0134694,583.374,1655.34,1655.48,0.0134694,0.0131962
741.0,0.0295634,584.089,1676.32,1676.44,0.0189505,0.0186773
754.0,0.0154222,584.804,1697.25,1697.34,0.023371,0.0230978
767.0,0.0119797,585.519,1718.13,1718.2,0.0144051,0.0141319
780.0,0.020044,586.234,1738.96,1739,0.0285745,0.0283013
793.0,0.0317115,586.949,1759.74,1759.75,0.0279357,0.0276625
806.0,0.00439542,587.664,1780.47,1780.45,0.00439542,0.00412223
819.0,0.00616464,588.379,1801.14,1801.1,0.00975051,0.00947732
832.0,0.0,589.094,1821.77,1821.7,0.00621042,0.00593723
845.0,0.0449834,589.809,1842.35,1842.25,0.0358554,0.0355822
858.0,0.0460867,590.524,1862.87,1862.75,0.0436885,0.0434153
871.0,0.0160182,591.239,1883.35,1883.2,0.0232078,0.0229346
884.0,0.00636758,591.954,1903.78,1903.6,0.0207398,0.0204666
897.0,0.0217063,592.669,1924.16,1923.96,0.0202526,0.0199794
910.0,0.0193529,593.384,1944.49,1944.26,0.0177158,0.0174426
923.0,0.028972,594.099,1964.77,1964.51,0.028972,0.0286988
936.0,0.0137684,594.813,1985,1984.72,0.00924047,0.00896726
949.0,0.0156357,595.528,2005.18,2004.88,0.0156357,0.0153625
962.0,0.00711845,596.243,2025.32,2024.98,0.0130205,0.0127473
975.0,0.013575,596.958,2045.4,2045.05,0.013575,0.0133018
988.0,0.0112632,597.673,2065.44,2065.06,0.0274649,0.0271917
1001.0,0.0169221,598.388,2085.43,2085.02,0.0148742,0.0146009
1014.0,0.00453574,599.103,2105.38,2104.94,0.0,-0.000273278
1027.0,0.0271072,599.818,2125.27,2124.81,0.0271072,0.0268339
1040.0,0.0426364,600.533,2145.12,2144.63,0.0363772,0.0361039
1053.0,0.0448699,601.248,2164.92,2164.41,0.0393422,0.0390688
1066.0,0.0273228,601.963,2184.67,2184.14,0.0423227,0.0420493
1079.0,0.0380453,602.678,2204.38,2203.82,0.0233203,0.0230469
1092.0,0.0285911,603.393,2224.04,2223.45,0.0285911,0.0283176
1105.0,0.0161564,604.108,2243.65,2243.04,0.0219325,0.021659
1118.0,0.0446366,604.823,2263.22,2262.58,0.0394285,0.039155
1131.0,0.0310027,605.538,2282.74,2282.08,0.0310027,0.0307291
1144.0,0.0109855,606.253,2302.22,2301.53,0.0228856,0.022612
1157.0,0.0295125,606.968,2321.65,2320.93,0.0358988,0.0356251
1170.0,0.0196968,607.682,2341.03,2340.29,0.0189507,0.018677
1183.0,0.0108959,608.397,2360.37,2359.6,0.0134282,0.0131544
1196.0,0.00720131,609.112,2379.66,2378.87,0.010125,0.00985118
1209.0,0.0442557,609.827,2398.91,2398.09,0.0275699,0.027296
1222.0,0.0376392,610.542,2418.11,2417.27,0.0275398,0.0272659
1235.0,0.0367745,611.257,2437.27,2436.4,0.0352866,0.0350126
1248.0,0.0226357,611.972,2456.38,2455.49,0.00879364,0.00851959
1261.0,0.0229199,612.687,2475.45,2474.53,0.0218721,0.021598
1274.0,0.0428574,613.402,2494.47,2493.53,0.0321928,0.0319186
1287.0,0.0347707,614.117,2513.45,2512.49,0.022734,0.0224598
1300.0,0.0319597,614.832,2532.39,2531.4,0.0237384,0.0234641
1313.0,0.0109863,615.547,2551.28,2550.27,0.00911751,0.00884313
1326.0,0.00486821,616.262,2570.12,2569.09,0.00778141,0.00750696
1339.0,0.0196256,616.977,2588.93,2587.87,0.0184632,0.0181887
1352.0,0.00967196,617.692,2607.69,2606.6,0.0122364,0.0119618
1365.0,0.0170725,618.407,2626.4,2625.3,0.0170725,0.0167979
1378.0,0.0112832,619.122,2645.08,2643.95,0.0187041,0.0184294
1391.0,0.0172708,619.837,2663.71,2662.55,0.0172708,0.016996
1404.0,0.0396249,620.551,2682.29,2681.12,0.0256418,0.025367
1417.0,6.51402e-05,621.266,2700.84,2699.64,0.0108906,0.0106157
1430.0,0.014276,621.981,2719.34,2718.11,0.0111782,0.0109032
1443.0,0.0321191,622.696,2737.8,2736.55,0.0239646,0.0236895
1456.0,0.0156032,623.411,2756.22,2754.94,0.0156032,0.015328
1469.0,0.0139368,624.126,2774.59,2773.29,0.0157139,0.0154386
1482.0,0.0156536,624.841,2792.93,2791.6,0.0156536,0.0153783
1495.0,0.0131228,625.556,2811.22,2809.87,0.0131228,0.0128474
1508.0,0.0255003,626.271,2829.47,2828.1,0.0179997,0.0177242
1521.0,0.0170152,626.986,2847.67,2846.28,0.0258811,0.0256055
1534.0,0.00545771,627.701,2865.84,2864.42,0.0105457,0.01027
1547.0,0.0321887,628.416,2883.96,2882.53,0.0262973,0.0260215
1560.0,0.00444038,629.131,2902.05,2900.59,0.0139083,0.0136324
1573.0,0.0190935,629.846,2920.09,2918.6,0.0328661,0.0325901
1586.0,0.0138892,630.561,2938.09,2936.58,0.0134752,0.0131992
1599.0,0.0663262,631.276,2956.05,2954.52,0.048063,0.0477869
1612.0,0.0928011,631.991,2973.97,2972.42,0.0928011,0.0925249
1625.0,0.0067839,632.706,2991.85,2990.27,0.0067839,0.00650769
1638.0,0.0244052,633.421,3009.69,3008.09,0.0296042,0.0293279
1651.0,0.000106813,634.135,3027.49,3025.87,0.000106813,-0.00016952
1664.0,0.0336054,634.85,3045.25,3043.6,0.0258957,0.0256193
1677.0,0.0229757,635.565,3062.97,3061.3,0.0229757,0.0226993
1690.0,0.0252106,636.28,3080.65,3078.96,0.0252106,0.0249341
1703.0,0.00816449,636.995,3098.29,3096.57,0.00862802,0.0083515
1716.0,0.00978286,637.71,3115.89,3114.15,0.00978286,0.00950632
1729.0,0.00785601,638.425,3133.45,3131.69,0.00785601,0.00757945
1742.0,0.0138802,639.14,3150.97,3149.19,0.029176,0.0288994
1755.0,0.0430478,639.855,3168.45,3166.65,0.0430478,0.0427712
1768.0,0.0282949,640.57,3185.9,3184.07,0.0282949,0.0280183
1781.0,0.0280225,641.285,3203.3,3201.45,0.0317938,0.0315171
1794.0,0.0501731,642,3220.66,3218.79,0.0393748,0.0390981
1807.0,0.034327,642.715,3237.99,3236.1,0.034327,0.0340503
1820.0,0.0285077,643.43,3255.28,3253.36,0.0285077,0.028231
1833.0,0.0345635,644.145,3272.53,3270.59,0.0345635,0.0342868
1846.0,0.0259289,644.86,3289.74,3287.78,0.0239599,0.0236832
1859.0,0.0,645.575,3306.92,3304.93,0.0075227,0.00724598
1872.0,0.0162697,646.29,3324.05,3322.05,0.0181115,0.0178347
1885.0,0.0164506,647.004,3341.15,3339.12,0.0164506,0.0161738
1898.0,0.0184706,647.719,3358.21,3356.16,0.0184706,0.0181938
1911.0,0.0108354,648.434,3375.23,3373.16,0.0108354,0.0105585
1924.0,0.0288004,649.149,3392.22,3390.12,0.0206364,0.0203595
1937.0,0.0148608,649.864,3409.16,3407.05,0.0091729,0.00889597
1950.0,0.0114287,650.579,3426.07,3423.94,0.0114287,0.0111517
1963.0,0.0,651.294,3442.95,3440.79,0.0024033,0.00212629
1976.0,0.0121544,652.009,3459.78,3457.6,0.0128001,0.0125231
1989.0,0.0150347,652.724,3476.58,3474.38,0.0185153,0.0182382
2002.0,0.00758373,653.439,3493.34,3491.12,0.00443275,0.00415567
2015.0,0.00741072,654.154,3510.07,3507.83,0.00741072,0.00713364
2028.0,0.0,654.869,3526.76,3524.49,0.00144961,0.00117252
2041.0,0.0339491,655.584,3543.41,3541.12,0.0283276,0.0280505
2047.0,0.0,655.914,3551.09,3548.79,0.0,-0.000277094