Folder: 2025-diyraman-bio/data/processed/processed_data/2024-09-03 (part 7)

File: 2024-09-03_glycinepowder_n_n_y_solid_1000_0_10.csv
Pixels #,Intensity (a.u.),Wavelength (nm),Raman shift (cm-1),Raman shift (cm-1) adjusted,Filtered Intensity (a.u.),Baselined Filtered Intensity (a.u.)
0.0,7.56219,543.337,392.223,393.994,7.56196,-0.0639041
12.0,7.56191,543.997,414.551,416.293,7.56249,-0.063379
24.0,7.56344,544.657,436.825,438.537,7.56299,-0.0628927
36.0,7.56392,545.317,459.044,460.728,7.56392,-0.0619854
48.0,7.56643,545.977,481.21,482.866,7.56582,-0.0601168
60.0,7.58506,546.637,503.323,504.95,7.58506,-0.0409165
72.0,7.61077,547.297,525.382,526.981,7.61077,-0.0152522
84.0,7.63427,547.957,547.388,548.958,7.63427,0.00819985
96.0,7.6425,548.617,569.341,570.883,7.64085,0.0147328
108.0,7.63978,549.277,591.241,592.755,7.64033,0.0141679
120.0,7.64695,549.937,613.089,614.575,7.6457,0.0194953
132.0,7.64108,550.597,634.884,636.342,7.64108,0.0148353
144.0,7.64719,551.257,656.627,658.057,7.64714,0.0208576
156.0,7.65255,551.917,678.319,679.72,7.6531,0.0267827
168.0,7.66826,552.577,699.958,701.332,7.66826,0.0419119
180.0,7.6935,553.237,721.546,722.892,7.6935,0.0671273
192.0,7.73708,553.897,743.082,744.4,7.73708,0.110693
204.0,7.79779,554.557,764.567,765.858,7.79779,0.171401
216.0,7.89324,555.217,786.001,787.264,7.89324,0.266851
228.0,8.02015,555.876,807.384,808.62,8.02015,0.393761
240.0,8.17049,556.536,828.716,829.924,8.17049,0.544101
252.0,8.31432,557.196,849.998,851.179,8.31432,0.687931
264.0,8.42724,557.856,871.23,872.383,8.42724,0.800851
276.0,8.53136,558.516,892.411,893.537,8.53136,0.904971
288.0,8.5052,559.176,913.542,914.641,8.50538,0.878991
300.0,8.51687,559.836,934.624,935.695,8.51592,0.889531
312.0,8.51697,560.496,955.656,956.7,8.51501,0.888621
324.0,8.52006,561.156,976.638,977.655,8.52137,0.894981
336.0,8.53418,561.816,997.571,998.562,8.53423,0.907841
348.0,8.55644,562.476,1018.45,1019.42,8.55644,0.930051
360.0,8.58315,563.136,1039.29,1040.23,8.58315,0.956761
372.0,8.58938,563.796,1060.08,1060.99,8.58733,0.960941
384.0,8.59402,564.456,1080.81,1081.7,8.59402,0.967631
396.0,8.59948,565.116,1101.5,1102.36,8.60099,0.974601
408.0,8.60231,565.776,1122.14,1122.97,8.60243,0.976041
420.0,8.61336,566.436,1142.74,1143.54,8.61449,0.988101
432.0,8.62205,567.096,1163.28,1164.06,8.62205,0.995661
444.0,8.62663,567.756,1183.78,1184.53,8.62688,1.00049
456.0,8.63656,568.416,1204.23,1204.95,8.63755,1.01116
468.0,8.6423,569.075,1224.63,1225.33,8.64347,1.01708
480.0,8.64868,569.735,1244.99,1245.66,8.64868,1.02229
492.0,8.65487,570.395,1265.29,1265.94,8.65485,1.02846
504.0,8.66282,571.055,1285.55,1286.17,8.66282,1.03643
516.0,8.69022,571.715,1305.77,1306.36,8.69022,1.06383
528.0,8.75173,572.375,1325.94,1326.5,8.75173,1.12534
540.0,8.68968,573.035,1346.06,1346.6,8.6897,1.06331
552.0,8.69609,573.695,1366.13,1366.65,8.69435,1.06796
564.0,8.71249,574.355,1386.16,1386.65,8.71249,1.0861
576.0,8.74594,575.015,1406.14,1406.61,8.74594,1.11955
588.0,8.72421,575.675,1426.08,1426.52,8.72541,1.09902
600.0,8.73389,576.335,1445.97,1446.38,8.73389,1.1075
612.0,8.72273,576.995,1465.82,1466.2,8.72369,1.0973
624.0,8.72739,577.655,1485.62,1485.98,8.7274,1.10101
636.0,8.73838,578.315,1505.37,1505.71,8.73838,1.11199
648.0,8.74303,578.975,1525.08,1525.39,8.7431,1.11671
660.0,8.75352,579.635,1544.75,1545.03,8.75202,1.12563
672.0,8.76395,580.295,1564.37,1564.63,8.76255,1.13616
684.0,8.75267,580.955,1583.94,1584.18,8.75288,1.12649
696.0,8.75133,581.614,1603.47,1603.68,8.75133,1.12494
708.0,8.75548,582.274,1622.96,1623.15,8.75597,1.12958
720.0,8.75218,582.934,1642.4,1642.56,8.75082,1.12443
732.0,8.75575,583.594,1661.8,1661.94,8.75682,1.13043
744.0,8.75495,584.254,1681.16,1681.27,8.7554,1.12901
756.0,8.75825,584.914,1700.47,1700.55,8.75825,1.13186
768.0,8.75491,585.574,1719.74,1719.8,8.75648,1.13009
780.0,8.74839,586.234,1738.96,1739,8.75367,1.12728
792.0,8.75482,586.894,1758.14,1758.15,8.75614,1.12975
804.0,8.75716,587.554,1777.28,1777.27,8.75664,1.13025
816.0,8.75266,588.214,1796.38,1796.34,8.75266,1.12627
828.0,8.75918,588.874,1815.43,1815.37,8.75888,1.13249
840.0,8.76045,589.534,1834.44,1834.35,8.76045,1.13406
852.0,8.76354,590.194,1853.41,1853.29,8.76354,1.13715
864.0,8.76541,590.854,1872.33,1872.2,8.76616,1.13977
876.0,8.757,591.514,1891.21,1891.05,8.75933,1.13294
888.0,8.75967,592.174,1910.05,1909.87,8.75967,1.13328
900.0,8.75059,592.834,1928.85,1928.64,8.75273,1.12634
912.0,8.75213,593.494,1947.61,1947.38,8.75285,1.12646
924.0,8.75013,594.154,1966.33,1966.07,8.75032,1.12393
936.0,8.74098,594.813,1985,1984.72,8.7448,1.11841
948.0,8.7365,595.473,2003.63,2003.33,8.73775,1.11136
960.0,8.73183,596.133,2022.22,2021.89,8.73002,1.10363
972.0,8.73205,596.793,2040.77,2040.42,8.72969,1.1033
984.0,8.71676,597.453,2059.28,2058.91,8.71676,1.09037
996.0,8.71427,598.113,2077.75,2077.35,8.71374,1.08735
1008.0,8.70637,598.773,2096.18,2095.75,8.70634,1.07995
1020.0,8.70231,599.433,2114.56,2114.12,8.70009,1.0737
1032.0,8.69593,600.093,2132.91,2132.44,8.69331,1.06692
1044.0,8.68584,600.753,2151.22,2150.72,8.68748,1.06109
1056.0,8.67754,601.413,2169.48,2168.96,8.67901,1.05262
1068.0,8.66942,602.073,2187.71,2187.17,8.67022,1.04383
1080.0,8.66486,602.733,2205.89,2205.33,8.66703,1.04064
1092.0,8.66459,603.393,2224.04,2223.45,8.66501,1.03862
1104.0,8.66244,604.053,2242.15,2241.54,8.66212,1.03573
1116.0,8.65568,604.713,2260.21,2259.58,8.65776,1.03137
1128.0,8.64734,605.373,2278.24,2277.58,8.64755,1.02116
1140.0,8.64478,606.033,2296.23,2295.55,8.64478,1.01839
1152.0,8.63923,606.693,2314.18,2313.47,8.64184,1.01545
1164.0,8.63116,607.353,2332.09,2331.36,8.63428,1.00789
1176.0,8.63085,608.012,2349.96,2349.21,8.63109,1.0047
1188.0,8.62327,608.672,2367.79,2367.02,8.62367,0.997281
1200.0,8.61851,609.332,2385.59,2384.79,8.61851,0.992121
1212.0,8.60855,609.992,2403.34,2402.52,8.60907,0.982681
1224.0,8.60306,610.652,2421.06,2420.22,8.60325,0.976861
1236.0,8.60049,611.312,2438.74,2437.87,8.60049,0.974101
1248.0,8.59867,611.972,2456.38,2455.49,8.5944,0.968011
1260.0,8.58681,612.632,2473.98,2473.07,8.58681,0.960421
1272.0,8.57609,613.292,2491.55,2490.61,8.57834,0.951951
1284.0,8.57097,613.952,2509.07,2508.12,8.56932,0.942931
1296.0,8.56583,614.612,2526.56,2525.59,8.56433,0.937941
1308.0,8.54983,615.272,2544.02,2543.01,8.5522,0.925811
1320.0,8.53995,615.932,2561.43,2560.41,8.54018,0.913791
1332.0,8.5317,616.592,2578.81,2577.76,8.53027,0.903881
1344.0,8.52753,617.252,2596.15,2595.08,8.52483,0.898441
1356.0,8.51827,617.912,2613.45,2612.36,8.51827,0.891881
1368.0,8.50335,618.572,2630.72,2629.6,8.50463,0.878241
1380.0,8.49507,619.232,2647.95,2646.81,8.49507,0.868681
1392.0,8.48844,619.892,2665.14,2663.98,8.48844,0.862051
1404.0,8.47887,620.551,2682.29,2681.12,8.47836,0.851971
1416.0,8.4712,621.211,2699.41,2698.21,8.46999,0.843601
1428.0,8.46353,621.871,2716.5,2715.27,8.46353,0.837141
1440.0,8.45617,622.531,2733.54,2732.3,8.45802,0.831631
1452.0,8.44357,623.191,2750.56,2749.29,8.44575,0.819361
1464.0,8.44393,623.851,2767.53,2766.24,8.44298,0.816591
1476.0,8.43327,624.511,2784.47,2783.16,8.43327,0.806881
1488.0,8.42452,625.171,2801.37,2800.04,8.42846,0.802071
1500.0,8.42145,625.831,2818.24,2816.89,8.42145,0.795061
1512.0,8.41595,626.491,2835.07,2833.7,8.41542,0.789031
1524.0,8.40598,627.151,2851.87,2850.47,8.40598,0.779591
1536.0,8.4004,627.811,2868.63,2867.21,8.40058,0.774191
1548.0,8.39319,628.471,2885.36,2883.92,8.39319,0.766801
1560.0,8.38904,629.131,2902.05,2900.59,8.38818,0.761791
1572.0,8.3831,629.791,2918.7,2917.22,8.3831,0.756711
1584.0,8.37196,630.451,2935.32,2933.82,8.37425,0.747861
1596.0,8.37379,631.111,2951.91,2950.38,8.37424,0.747851
1608.0,8.42575,631.771,2968.46,2966.92,8.42575,0.799361
1620.0,8.36195,632.431,2984.98,2983.41,8.36195,0.735561
1632.0,8.34978,633.091,3001.46,2999.87,8.34978,0.723391
1644.0,8.32256,633.75,3017.91,3016.3,8.32256,0.696171
1656.0,8.29303,634.41,3034.33,3032.69,8.29335,0.666961
1668.0,8.28213,635.07,3050.71,3049.05,8.28213,0.655741
1680.0,8.27113,635.73,3067.05,3065.38,8.27113,0.644741
1692.0,8.2573,636.39,3083.36,3081.67,8.2573,0.630911
1704.0,8.24704,637.05,3099.64,3097.93,8.24704,0.620651
1716.0,8.23938,637.71,3115.89,3114.15,8.24018,0.613791
1728.0,8.2351,638.37,3132.1,3130.34,8.23444,0.608051
1740.0,8.22587,639.03,3148.28,3146.5,8.22587,0.599481
1752.0,8.21343,639.69,3164.42,3162.62,8.21343,0.587041
1764.0,8.19842,640.35,3180.53,3178.71,8.19929,0.572901
1776.0,8.18759,641.01,3196.61,3194.77,8.18759,0.561201
1788.0,8.17518,641.67,3212.65,3210.79,8.17518,0.548791
1800.0,8.16253,642.33,3228.67,3226.78,8.16292,0.536531
1812.0,8.15681,642.99,3244.65,3242.74,8.1561,0.529711
1824.0,8.1454,643.65,3260.59,3258.67,8.1454,0.519011
1836.0,8.13681,644.31,3276.51,3274.56,8.13709,0.510701
1848.0,8.12819,644.97,3292.39,3290.42,8.12819,0.501801
1860.0,8.11845,645.63,3308.23,3306.25,8.11845,0.492061
1872.0,8.11092,646.29,3324.05,3322.05,8.1114,0.485011
1884.0,8.10265,646.949,3339.83,3337.81,8.1046,0.478211
1896.0,8.09574,647.609,3355.59,3353.54,8.09586,0.469471
1908.0,8.09015,648.269,3371.31,3369.24,8.09015,0.463761
1920.0,8.08648,648.929,3386.99,3384.91,8.08559,0.459201
1932.0,8.0779,649.589,3402.65,3400.54,8.07779,0.451401
1944.0,8.06685,650.249,3418.27,3416.15,8.06685,0.440461
1956.0,8.05854,650.909,3433.87,3431.72,8.05854,0.432151
1968.0,8.04759,651.569,3449.43,3447.26,8.04819,0.421801
1980.0,8.04099,652.229,3464.96,3462.77,8.04194,0.415551
1992.0,8.03395,652.889,3480.45,3478.25,8.03395,0.407561
2004.0,8.02612,653.549,3495.92,3493.69,8.02572,0.399331
2016.0,8.01495,654.209,3511.36,3509.11,8.01617,0.389781
2028.0,8.01067,654.869,3526.76,3524.49,8.01067,0.384281
2040.0,8.00908,655.529,3542.13,3539.85,8.00854,0.382151
2047.0,7.99923,655.914,3551.09,3548.79,7.99923,0.372841

File: 2024-09-03_glycinepowder_n_n_y_solid_1000_0_20.csv
Pixels #,Intensity (a.u.),Wavelength (nm),Raman shift (cm-1),Raman shift (cm-1) adjusted,Filtered Intensity (a.u.),Baselined Filtered Intensity (a.u.)
0.0,7.56441,543.337,392.223,393.994,7.56254,-0.0600471
12.0,7.5627,543.997,414.551,416.293,7.5627,-0.0598917
24.0,7.5626,544.657,436.825,438.537,7.56242,-0.0601847
36.0,7.56414,545.317,459.044,460.728,7.56345,-0.0591762
48.0,7.56506,545.977,481.21,482.866,7.56506,-0.0575961
60.0,7.58328,546.637,503.323,504.95,7.58328,-0.039414
72.0,7.60718,547.297,525.382,526.981,7.60718,-0.0155575
84.0,7.63031,547.957,547.388,548.958,7.63031,0.00752667
96.0,7.6384,548.617,569.341,570.883,7.63731,0.0144817
108.0,7.63685,549.277,591.241,592.755,7.63685,0.0139788
120.0,7.6417,549.937,613.089,614.575,7.64004,0.0171281
132.0,7.63734,550.597,634.884,636.342,7.63745,0.0144997
144.0,7.64286,551.257,656.627,658.057,7.64286,0.0198737
156.0,7.64774,551.917,678.319,679.72,7.64774,0.0247204
168.0,7.66415,552.577,699.958,701.332,7.66415,0.0411009
180.0,7.68843,553.237,721.546,722.892,7.68843,0.0653575
192.0,7.72828,553.897,743.082,744.4,7.72828,0.105193
204.0,7.78619,554.557,764.567,765.858,7.78619,0.163102
216.0,7.87795,555.217,786.001,787.264,7.87795,0.254862
228.0,7.99701,555.876,807.384,808.62,7.99701,0.373922
240.0,8.14209,556.536,828.716,829.924,8.14209,0.519002
252.0,8.27772,557.196,849.998,851.179,8.27772,0.654632
264.0,8.38154,557.856,871.23,872.383,8.38154,0.758452
276.0,8.48901,558.516,892.411,893.537,8.48901,0.865922
288.0,8.46224,559.176,913.542,914.641,8.46224,0.839152
300.0,8.46785,559.836,934.624,935.695,8.46783,0.844742
312.0,8.46742,560.496,955.656,956.7,8.4678,0.844712
324.0,8.47071,561.156,976.638,977.655,8.47071,0.847622
336.0,8.48569,561.816,997.571,998.562,8.48569,0.862602
348.0,8.50584,562.476,1018.45,1019.42,8.50584,0.882752
360.0,8.53561,563.136,1039.29,1040.23,8.53418,0.911092
372.0,8.53896,563.796,1060.08,1060.99,8.53896,0.915872
384.0,8.5438,564.456,1080.81,1081.7,8.5446,0.921512
396.0,8.5517,565.116,1101.5,1102.36,8.54992,0.926832
408.0,8.55479,565.776,1122.14,1122.97,8.55479,0.931702
420.0,8.56528,566.436,1142.74,1143.54,8.56477,0.941682
432.0,8.56819,567.096,1163.28,1164.06,8.56819,0.945102
444.0,8.57124,567.756,1183.78,1184.53,8.5751,0.952012
456.0,8.58514,568.416,1204.23,1204.95,8.58514,0.962052
468.0,8.5945,569.075,1224.63,1225.33,8.59417,0.971082
480.0,8.59545,569.735,1244.99,1245.66,8.59545,0.972362
492.0,8.6034,570.395,1265.29,1265.94,8.60359,0.980502
504.0,8.60958,571.055,1285.55,1286.17,8.60958,0.986492
516.0,8.63731,571.715,1305.77,1306.36,8.63731,1.01422
528.0,8.70127,572.375,1325.94,1326.5,8.70127,1.07818
540.0,8.63532,573.035,1346.06,1346.6,8.63606,1.01297
552.0,8.64397,573.695,1366.13,1366.65,8.64397,1.02088
564.0,8.65755,574.355,1386.16,1386.65,8.65755,1.03446
576.0,8.68723,575.015,1406.14,1406.61,8.68723,1.06414
588.0,8.66629,575.675,1426.08,1426.52,8.66785,1.04476
600.0,8.67965,576.335,1445.97,1446.38,8.67965,1.05656
612.0,8.6715,576.995,1465.82,1466.2,8.67198,1.04889
624.0,8.67349,577.655,1485.62,1485.98,8.67358,1.05049
636.0,8.68425,578.315,1505.37,1505.71,8.68425,1.06116
648.0,8.68866,578.975,1525.08,1525.39,8.68866,1.06557
660.0,8.68956,579.635,1544.75,1545.03,8.69097,1.06788
672.0,8.70458,580.295,1564.37,1564.63,8.70458,1.08149
684.0,8.69837,580.955,1583.94,1584.18,8.69837,1.07528
696.0,8.69491,581.614,1603.47,1603.68,8.69484,1.07175
708.0,8.70048,582.274,1622.96,1623.15,8.6991,1.07601
720.0,8.69679,582.934,1642.4,1642.56,8.69679,1.0737
732.0,8.70223,583.594,1661.8,1661.94,8.70223,1.07914
744.0,8.70011,584.254,1681.16,1681.27,8.70164,1.07855
756.0,8.70105,584.914,1700.47,1700.55,8.69915,1.07606
768.0,8.70074,585.574,1719.74,1719.8,8.70098,1.07789
780.0,8.70011,586.234,1738.96,1739,8.70209,1.079
792.0,8.70081,586.894,1758.14,1758.15,8.70081,1.07772
804.0,8.70109,587.554,1777.28,1777.27,8.70129,1.0782
816.0,8.70063,588.214,1796.38,1796.34,8.70002,1.07693
828.0,8.70463,588.874,1815.43,1815.37,8.70363,1.08054
840.0,8.70059,589.534,1834.44,1834.35,8.70211,1.07902
852.0,8.70832,590.194,1853.41,1853.29,8.70995,1.08686
864.0,8.71096,590.854,1872.33,1872.2,8.7105,1.08741
876.0,8.70456,591.514,1891.21,1891.05,8.70482,1.08173
888.0,8.70533,592.174,1910.05,1909.87,8.70415,1.08106
900.0,8.70306,592.834,1928.85,1928.64,8.70216,1.07907
912.0,8.69918,593.494,1947.61,1947.38,8.69887,1.07578
924.0,8.69376,594.154,1966.33,1966.07,8.69369,1.0706
936.0,8.69156,594.813,1985,1984.72,8.69105,1.06796
948.0,8.68468,595.473,2003.63,2003.33,8.68405,1.06096
960.0,8.67877,596.133,2022.22,2021.89,8.67854,1.05545
972.0,8.67511,596.793,2040.77,2040.42,8.67405,1.05096
984.0,8.66847,597.453,2059.28,2058.91,8.66847,1.04538
996.0,8.66234,598.113,2077.75,2077.35,8.66222,1.03913
1008.0,8.65462,598.773,2096.18,2095.75,8.65314,1.03005
1020.0,8.64824,599.433,2114.56,2114.12,8.64898,1.02589
1032.0,8.64246,600.093,2132.91,2132.44,8.64246,1.01937
1044.0,8.63801,600.753,2151.22,2150.72,8.63629,1.0132
1056.0,8.62973,601.413,2169.48,2168.96,8.62974,1.00665
1068.0,8.62563,602.073,2187.71,2187.17,8.62473,1.00164
1080.0,8.62295,602.733,2205.89,2205.33,8.62295,0.999862
1092.0,8.61623,603.393,2224.04,2223.45,8.61668,0.993592
1104.0,8.61254,604.053,2242.15,2241.54,8.61337,0.990282
1116.0,8.61082,604.713,2260.21,2259.58,8.61056,0.987472
1128.0,8.60278,605.373,2278.24,2277.58,8.60264,0.979552
1140.0,8.59858,606.033,2296.23,2295.55,8.59802,0.974932
1152.0,8.5898,606.693,2314.18,2313.47,8.59164,0.968552
1164.0,8.58771,607.353,2332.09,2331.36,8.58771,0.964622
1176.0,8.58504,608.012,2349.96,2349.21,8.58504,0.961952
1188.0,8.57861,608.672,2367.79,2367.02,8.57861,0.955522
1200.0,8.56988,609.332,2385.59,2384.79,8.57016,0.947072
1212.0,8.56334,609.992,2403.34,2402.52,8.56525,0.942162
1224.0,8.55945,610.652,2421.06,2420.22,8.55945,0.936362
1236.0,8.55432,611.312,2438.74,2437.87,8.55344,0.930352
1248.0,8.55016,611.972,2456.38,2455.49,8.54811,0.925022
1260.0,8.53719,612.632,2473.98,2473.07,8.53923,0.916142
1272.0,8.533,613.292,2491.55,2490.61,8.533,0.909912
1284.0,8.52566,613.952,2509.07,2508.12,8.52596,0.902872
1296.0,8.51932,614.612,2526.56,2525.59,8.51825,0.895162
1308.0,8.50758,615.272,2544.02,2543.01,8.50758,0.884492
1320.0,8.49892,615.932,2561.43,2560.41,8.49892,0.875832
1332.0,8.48824,616.592,2578.81,2577.76,8.48913,0.866042
1344.0,8.48278,617.252,2596.15,2595.08,8.48203,0.858942
1356.0,8.47881,617.912,2613.45,2612.36,8.47868,0.855592
1368.0,8.46261,618.572,2630.72,2629.6,8.46359,0.840502
1380.0,8.45251,619.232,2647.95,2646.81,8.453,0.829912
1392.0,8.44389,619.892,2665.14,2663.98,8.44389,0.820802
1404.0,8.43924,620.551,2682.29,2681.12,8.43924,0.816152
1416.0,8.43435,621.211,2699.41,2698.21,8.43435,0.811262
1428.0,8.42228,621.871,2716.5,2715.27,8.42442,0.801332
1440.0,8.4169,622.531,2733.54,2732.3,8.41825,0.795162
1452.0,8.40921,623.191,2750.56,2749.29,8.41061,0.787522
1464.0,8.40839,623.851,2767.53,2766.24,8.4042,0.781112
1476.0,8.40025,624.511,2784.47,2783.16,8.40028,0.777192
1488.0,8.39416,625.171,2801.37,2800.04,8.39266,0.769572
1500.0,8.38473,625.831,2818.24,2816.89,8.38458,0.761492
1512.0,8.38049,626.491,2835.07,2833.7,8.37952,0.756432
1524.0,8.36877,627.151,2851.87,2850.47,8.36915,0.746062
1536.0,8.36588,627.811,2868.63,2867.21,8.36649,0.743402
1548.0,8.36023,628.471,2885.36,2883.92,8.36023,0.737142
1560.0,8.35559,629.131,2902.05,2900.59,8.35559,0.732502
1572.0,8.34796,629.791,2918.7,2917.22,8.34722,0.724132
1584.0,8.33863,630.451,2935.32,2933.82,8.33868,0.715592
1596.0,8.34233,631.111,2951.91,2950.38,8.34233,0.719242
1608.0,8.39055,631.771,2968.46,2966.92,8.39055,0.767462
1620.0,8.33387,632.431,2984.98,2983.41,8.33387,0.710782
1632.0,8.31802,633.091,3001.46,2999.87,8.31802,0.694932
1644.0,8.28961,633.75,3017.91,3016.3,8.28961,0.666522
1656.0,8.26379,634.41,3034.33,3032.69,8.26452,0.641432
1668.0,8.2524,635.07,3050.71,3049.05,8.2524,0.629312
1680.0,8.24138,635.73,3067.05,3065.38,8.24138,0.618292
1692.0,8.22922,636.39,3083.36,3081.67,8.22922,0.606132
1704.0,8.21939,637.05,3099.64,3097.93,8.21939,0.596302
1716.0,8.21029,637.71,3115.89,3114.15,8.21029,0.587202
1728.0,8.20746,638.37,3132.1,3130.34,8.20712,0.584032
1740.0,8.20114,639.03,3148.28,3146.5,8.20114,0.578052
1752.0,8.1865,639.69,3164.42,3162.62,8.1865,0.563412
1764.0,8.17489,640.35,3180.53,3178.71,8.17412,0.551032
1776.0,8.16069,641.01,3196.61,3194.77,8.16069,0.537602
1788.0,8.15088,641.67,3212.65,3210.79,8.15088,0.527792
1800.0,8.14108,642.33,3228.67,3226.78,8.14111,0.518022
1812.0,8.13354,642.99,3244.65,3242.74,8.13235,0.509262
1824.0,8.12166,643.65,3260.59,3258.67,8.12193,0.498842
1836.0,8.1134,644.31,3276.51,3274.56,8.1134,0.490312
1848.0,8.10723,644.97,3292.39,3290.42,8.10806,0.484972
1860.0,8.09661,645.63,3308.23,3306.25,8.09661,0.473522
1872.0,8.09186,646.29,3324.05,3322.05,8.09145,0.468362
1884.0,8.08343,646.949,3339.83,3337.81,8.08366,0.460572
1896.0,8.07644,647.609,3355.59,3353.54,8.0765,0.453412
1908.0,8.06783,648.269,3371.31,3369.24,8.06858,0.445492
1920.0,8.06401,648.929,3386.99,3384.91,8.06251,0.439422
1932.0,8.05552,649.589,3402.65,3400.54,8.05552,0.432432
1944.0,8.04424,650.249,3418.27,3416.15,8.04449,0.421402
1956.0,8.03845,650.909,3433.87,3431.72,8.03845,0.415362
1968.0,8.02791,651.569,3449.43,3447.26,8.02884,0.405752
1980.0,8.0248,652.229,3464.96,3462.77,8.02377,0.400682
1992.0,8.0145,652.889,3480.45,3478.25,8.01553,0.392442
2004.0,8.00866,653.549,3495.92,3493.69,8.00866,0.385572
2016.0,7.99721,654.209,3511.36,3509.11,7.99924,0.376152
2028.0,7.99207,654.869,3526.76,3524.49,7.99207,0.368982
2040.0,7.98963,655.529,3542.13,3539.85,7.98831,0.365222
2047.0,7.98247,655.914,3551.09,3548.79,7.98247,0.359382