Folder: 2025-diyraman-bio/data/processed/processed_data/2024-09-03 (part 4)

File: 2024-09-03_calcitecrystal_n_n_y_solid_5011_0_5.csv
Pixels #,Intensity (a.u.),Wavelength (nm),Raman shift (cm-1),Raman shift (cm-1) adjusted,Filtered Intensity (a.u.),Baselined Filtered Intensity (a.u.)
0.0,1.61435,543.337,392.223,393.994,1.61435,-0.0150226
12.0,1.61549,543.997,414.551,416.293,1.61549,-0.0138837
24.0,1.61441,544.657,436.825,438.537,1.61441,-0.0149667
36.0,1.61747,545.317,459.044,460.728,1.61747,-0.0119117
48.0,1.61902,545.977,481.21,482.866,1.61809,-0.0112985
60.0,1.61604,546.637,503.323,504.95,1.61611,-0.0132871
72.0,1.61747,547.297,525.382,526.981,1.61738,-0.0120275
84.0,1.61697,547.957,547.388,548.958,1.61733,-0.0120897
96.0,1.61646,548.617,569.341,570.883,1.61638,-0.0130536
108.0,1.61459,549.277,591.241,592.755,1.61507,-0.0143793
120.0,1.61588,549.937,613.089,614.575,1.6162,-0.0132669
132.0,1.61439,550.597,634.884,636.342,1.61499,-0.0144964
144.0,1.61634,551.257,656.627,658.057,1.61622,-0.013288
156.0,1.61668,551.917,678.319,679.72,1.61598,-0.0135515
168.0,1.61775,552.577,699.958,701.332,1.61775,-0.0118069
180.0,1.61723,553.237,721.546,722.892,1.61687,-0.0127141
192.0,1.61836,553.897,743.082,744.4,1.61798,-0.011633
204.0,1.61984,554.557,764.567,765.858,1.62002,-0.00962364
216.0,1.62509,555.217,786.001,787.264,1.62509,-0.00458562
228.0,1.62856,555.876,807.384,808.62,1.62856,-0.0011484
240.0,1.63245,556.536,828.716,829.924,1.6328,0.00305866
252.0,1.63956,557.196,849.998,851.179,1.63956,0.00978629
264.0,1.6436,557.856,871.23,872.383,1.6436,0.0137953
276.0,1.64448,558.516,892.411,893.537,1.6449,0.0150663
288.0,1.647,559.176,913.542,914.641,1.64678,0.0169195
300.0,1.64921,559.836,934.624,935.695,1.64921,0.0193253
312.0,1.65092,560.496,955.656,956.7,1.64995,0.0200439
324.0,1.65075,561.156,976.638,977.655,1.65087,0.0209452
336.0,1.65115,561.816,997.571,998.562,1.65115,0.0212096
348.0,1.65393,562.476,1018.45,1019.42,1.65393,0.023977
360.0,1.65691,563.136,1039.29,1040.23,1.65691,0.0269479
372.0,1.66254,563.796,1060.08,1060.99,1.66254,0.0325726
384.0,1.94282,564.456,1080.81,1081.7,1.94282,0.312849
396.0,1.66765,565.116,1101.5,1102.36,1.66765,0.0376747
408.0,1.66061,565.776,1122.14,1122.97,1.66061,0.0306307
420.0,1.66237,566.436,1142.74,1143.54,1.66196,0.0319783
432.0,1.66328,567.096,1163.28,1164.06,1.6632,0.0332177
444.0,1.66262,567.756,1183.78,1184.53,1.66275,0.0327675
456.0,1.66601,568.416,1204.23,1204.95,1.66626,0.0362775
468.0,1.6679,569.075,1224.63,1225.33,1.66785,0.0378675
480.0,1.66787,569.735,1244.99,1245.66,1.66825,0.0382675
492.0,1.66928,570.395,1265.29,1265.94,1.66928,0.0392975
504.0,1.67096,571.055,1285.55,1286.17,1.67092,0.0409375
516.0,1.67383,571.715,1305.77,1306.36,1.67383,0.0438475
528.0,1.67708,572.375,1325.94,1326.5,1.67615,0.0461675
540.0,1.67946,573.035,1346.06,1346.6,1.67934,0.0493575
552.0,1.68246,573.695,1366.13,1366.65,1.68161,0.0516275
564.0,1.68404,574.355,1386.16,1386.65,1.68404,0.0540575
576.0,1.68652,575.015,1406.14,1406.61,1.68652,0.0565375
588.0,1.69027,575.675,1426.08,1426.52,1.69036,0.0603775
600.0,1.69306,576.335,1445.97,1446.38,1.69303,0.0630475
612.0,1.69345,576.995,1465.82,1466.2,1.69484,0.0648575
624.0,1.69729,577.655,1485.62,1485.98,1.6975,0.0675175
636.0,1.7,578.315,1505.37,1505.71,1.70061,0.0706275
648.0,1.70224,578.975,1525.08,1525.39,1.70265,0.0726675
660.0,1.70751,579.635,1544.75,1545.03,1.70747,0.0774875
672.0,1.71095,580.295,1564.37,1564.63,1.71014,0.0801575
684.0,1.71099,580.955,1583.94,1584.18,1.71163,0.0816475
696.0,1.71503,581.614,1603.47,1603.68,1.71503,0.0850475
708.0,1.71905,582.274,1622.96,1623.15,1.71905,0.0890675
720.0,1.71741,582.934,1642.4,1642.56,1.71791,0.0879275
732.0,1.72375,583.594,1661.8,1661.94,1.72283,0.0928475
744.0,1.7251,584.254,1681.16,1681.27,1.72509,0.0951075
756.0,1.72926,584.914,1700.47,1700.55,1.72925,0.0992675
768.0,1.732,585.574,1719.74,1719.8,1.732,0.102018
780.0,1.73634,586.234,1738.96,1739,1.73644,0.106458
792.0,1.73998,586.894,1758.14,1758.15,1.73998,0.109998
804.0,1.73813,587.554,1777.28,1777.27,1.73789,0.107908
816.0,1.73983,588.214,1796.38,1796.34,1.73983,0.109848
828.0,1.74318,588.874,1815.43,1815.37,1.74294,0.112958
840.0,1.74383,589.534,1834.44,1834.35,1.74441,0.114428
852.0,1.74822,590.194,1853.41,1853.29,1.748,0.118018
864.0,1.75192,590.854,1872.33,1872.2,1.752,0.122018
876.0,1.75416,591.514,1891.21,1891.05,1.75406,0.124078
888.0,1.75603,592.174,1910.05,1909.87,1.75603,0.126048
900.0,1.75799,592.834,1928.85,1928.64,1.75736,0.127378
912.0,1.75825,593.494,1947.61,1947.38,1.75825,0.128268
924.0,1.76118,594.154,1966.33,1966.07,1.761,0.131018
936.0,1.76248,594.813,1985,1984.72,1.76248,0.132498
948.0,1.76358,595.473,2003.63,2003.33,1.76389,0.133908
960.0,1.7658,596.133,2022.22,2021.89,1.7658,0.135818
972.0,1.76913,596.793,2040.77,2040.42,1.76913,0.139148
984.0,1.76936,597.453,2059.28,2058.91,1.76936,0.139378
996.0,1.77269,598.113,2077.75,2077.35,1.77138,0.141398
1008.0,1.77133,598.773,2096.18,2095.75,1.77133,0.141348
1020.0,1.77476,599.433,2114.56,2114.12,1.77454,0.144558
1032.0,1.77568,600.093,2132.91,2132.44,1.77541,0.145428
1044.0,1.77724,600.753,2151.22,2150.72,1.77716,0.147178
1056.0,1.77691,601.413,2169.48,2168.96,1.77705,0.147068
1068.0,1.77974,602.073,2187.71,2187.17,1.77876,0.148778
1080.0,1.7797,602.733,2205.89,2205.33,1.77926,0.149278
1092.0,1.78172,603.393,2224.04,2223.45,1.78172,0.151738
1104.0,1.78394,604.053,2242.15,2241.54,1.78394,0.153958
1116.0,1.78516,604.713,2260.21,2259.58,1.78541,0.155428
1128.0,1.78487,605.373,2278.24,2277.58,1.78517,0.155188
1140.0,1.78605,606.033,2296.23,2295.55,1.78691,0.156928
1152.0,1.78608,606.693,2314.18,2313.47,1.78608,0.156098
1164.0,1.78765,607.353,2332.09,2331.36,1.78737,0.157388
1176.0,1.7885,608.012,2349.96,2349.21,1.78886,0.158878
1188.0,1.78845,608.672,2367.79,2367.02,1.78837,0.158388
1200.0,1.78883,609.332,2385.59,2384.79,1.78883,0.158848
1212.0,1.78773,609.992,2403.34,2402.52,1.78829,0.158308
1224.0,1.78854,610.652,2421.06,2420.22,1.78865,0.158668
1236.0,1.7878,611.312,2438.74,2437.87,1.78784,0.157858
1248.0,1.78944,611.972,2456.38,2455.49,1.78844,0.158458
1260.0,1.78604,612.632,2473.98,2473.07,1.78642,0.156438
1272.0,1.78643,613.292,2491.55,2490.61,1.78643,0.156448
1284.0,1.78358,613.952,2509.07,2508.12,1.7839,0.153918
1296.0,1.78351,614.612,2526.56,2525.59,1.78351,0.153528
1308.0,1.78084,615.272,2544.02,2543.01,1.78084,0.150858
1320.0,1.78014,615.932,2561.43,2560.41,1.78014,0.150158
1332.0,1.77686,616.592,2578.81,2577.76,1.77686,0.146878
1344.0,1.77527,617.252,2596.15,2595.08,1.77532,0.145338
1356.0,1.77382,617.912,2613.45,2612.36,1.77382,0.143838
1368.0,1.77261,618.572,2630.72,2629.6,1.77261,0.142628
1380.0,1.76975,619.232,2647.95,2646.81,1.77023,0.140248
1392.0,1.7678,619.892,2665.14,2663.98,1.7678,0.137818
1404.0,1.76494,620.551,2682.29,2681.12,1.76528,0.135298
1416.0,1.76413,621.211,2699.41,2698.21,1.76413,0.134148
1428.0,1.76358,621.871,2716.5,2715.27,1.7623,0.132318
1440.0,1.76075,622.531,2733.54,2732.3,1.76093,0.130948
1452.0,1.75787,623.191,2750.56,2749.29,1.75787,0.127888
1464.0,1.75612,623.851,2767.53,2766.24,1.75578,0.125798
1476.0,1.75497,624.511,2784.47,2783.16,1.75475,0.124768
1488.0,1.75038,625.171,2801.37,2800.04,1.75057,0.120588
1500.0,1.74772,625.831,2818.24,2816.89,1.74822,0.118238
1512.0,1.74688,626.491,2835.07,2833.7,1.74684,0.116858
1524.0,1.74708,627.151,2851.87,2850.47,1.74695,0.116968
1536.0,1.74426,627.811,2868.63,2867.21,1.74361,0.113628
1548.0,1.74114,628.471,2885.36,2883.92,1.74114,0.111158
1560.0,1.74056,629.131,2902.05,2900.59,1.74056,0.110578
1572.0,1.73772,629.791,2918.7,2917.22,1.73769,0.107708
1584.0,1.73369,630.451,2935.32,2933.82,1.73369,0.103708
1596.0,1.73093,631.111,2951.91,2950.38,1.7317,0.101718
1608.0,1.72903,631.771,2968.46,2966.92,1.72903,0.0990475
1620.0,1.72619,632.431,2984.98,2983.41,1.72602,0.0960375
1632.0,1.72392,633.091,3001.46,2999.87,1.72392,0.0939375
1644.0,1.72068,633.75,3017.91,3016.3,1.72068,0.0906975
1656.0,1.71716,634.41,3034.33,3032.69,1.71751,0.0875275
1668.0,1.71358,635.07,3050.71,3049.05,1.71383,0.0838475
1680.0,1.71139,635.73,3067.05,3065.38,1.71139,0.0814075
1692.0,1.70831,636.39,3083.36,3081.67,1.70848,0.0784975
1704.0,1.70583,637.05,3099.64,3097.93,1.70587,0.0758875
1716.0,1.70449,637.71,3115.89,3114.15,1.7036,0.0736175
1728.0,1.70082,638.37,3132.1,3130.34,1.70082,0.0708375
1740.0,1.69825,639.03,3148.28,3146.5,1.69825,0.0682675
1752.0,1.69692,639.69,3164.42,3162.62,1.69692,0.0669375
1764.0,1.69314,640.35,3180.53,3178.71,1.69314,0.0631575
1776.0,1.69007,641.01,3196.61,3194.77,1.68982,0.0598375
1788.0,1.68623,641.67,3212.65,3210.79,1.68623,0.0562475
1800.0,1.68455,642.33,3228.67,3226.78,1.68496,0.0549775
1812.0,1.68355,642.99,3244.65,3242.74,1.68238,0.0523975
1824.0,1.68106,643.65,3260.59,3258.67,1.68146,0.0514775
1836.0,1.67834,644.31,3276.51,3274.56,1.67834,0.0483575
1848.0,1.67706,644.97,3292.39,3290.42,1.67706,0.0470775
1860.0,1.67536,645.63,3308.23,3306.25,1.67536,0.0453775
1872.0,1.67731,646.29,3324.05,3322.05,1.67651,0.0465275
1884.0,1.67397,646.949,3339.83,3337.81,1.67451,0.0445275
1896.0,1.67597,647.609,3355.59,3353.54,1.67597,0.0459875
1908.0,1.67574,648.269,3371.31,3369.24,1.67574,0.0457575
1920.0,1.67657,648.929,3386.99,3384.91,1.67516,0.0451775
1932.0,1.67815,649.589,3402.65,3400.54,1.6776,0.0476175
1944.0,1.67497,650.249,3418.27,3416.15,1.67502,0.0450375
1956.0,1.67622,650.909,3433.87,3431.72,1.67622,0.0462375
1968.0,1.67806,651.569,3449.43,3447.26,1.67806,0.0480775
1980.0,1.67833,652.229,3464.96,3462.77,1.67786,0.0478775
1992.0,1.67898,652.889,3480.45,3478.25,1.6783,0.0483175
2004.0,1.68131,653.549,3495.92,3493.69,1.68083,0.0508475
2016.0,1.67534,654.209,3511.36,3509.11,1.67627,0.0462875
2028.0,1.67717,654.869,3526.76,3524.49,1.67796,0.0479775
2040.0,1.67656,655.529,3542.13,3539.85,1.67739,0.0474075
2047.0,1.67652,655.914,3551.09,3548.79,1.67636,0.0463775

File: 2024-09-03_calcitecrystal_n_y_y_solid_1000_0_5.csv
Pixels #,Intensity (a.u.),Wavelength (nm),Raman shift (cm-1),Raman shift (cm-1) adjusted,Filtered Intensity (a.u.),Baselined Filtered Intensity (a.u.)
0.0,0.000642151,543.337,392.223,393.994,0.0,-1.75931e-06
13.0,0.00135869,544.052,416.409,418.148,0.00110412,0.00110236
26.0,0.00162992,544.767,440.532,442.24,0.00162992,0.00162816
39.0,0.00262423,545.482,464.591,466.268,0.00184297,0.00184121
52.0,0.000720353,546.197,488.587,490.233,0.000115142,0.000113387
65.0,0.000650161,546.912,512.521,514.136,0.000650161,0.000648407
78.0,0.0,547.627,536.392,537.976,0.000773251,0.000771498
91.0,0.00144859,548.342,560.2,561.754,0.000195315,0.000193563
104.0,0.00224715,549.057,583.947,585.47,0.00224715,0.0022454
117.0,0.0,549.772,607.632,609.125,0.00071266,0.00071091
130.0,0.00151147,550.487,631.255,632.718,0.000821508,0.000819759
143.0,0.00117672,551.202,654.818,656.25,0.000976577,0.000974829
156.0,0.000216678,551.917,678.319,679.72,0.000216678,0.000214931
169.0,0.00152616,552.632,701.759,703.13,0.00032241,0.000320663
182.0,0.0,553.347,725.139,726.48,0.0,-1.74623e-06
195.0,0.0,554.062,748.458,749.769,0.000242618,0.000240872
208.0,0.000958521,554.777,771.717,772.999,0.000958521,0.000956776
221.0,0.000387579,555.491,794.917,796.168,0.000533684,0.000531939
234.0,0.00168002,556.206,818.057,819.278,0.000767974,0.000766229
247.0,6.47237e-05,556.921,841.137,842.329,0.000886422,0.000884677
260.0,0.000335508,557.636,864.158,865.321,0.00117609,0.00117435
273.0,0.000526436,558.351,887.12,888.253,0.000107195,0.00010545
286.0,0.0,559.066,910.024,911.127,0.000192899,0.000191154
299.0,0.00112281,559.781,932.869,933.943,0.00112281,0.00112107
312.0,0.00123846,560.496,955.656,956.7,7.17174e-05,6.99726e-05
325.0,0.00092476,561.211,978.384,979.4,0.000828628,0.000826883
338.0,0.000709862,561.926,1001.06,1002.04,0.000709862,0.000708117
351.0,0.0027863,562.641,1023.67,1024.63,0.00155439,0.00155264
364.0,0.0,563.356,1046.22,1047.15,0.000323873,0.000322127
377.0,0.00650111,564.071,1068.72,1069.62,0.00650111,0.00649936
390.0,0.0,564.786,1091.16,1092.03,0.0,-1.74723e-06
403.0,0.000440223,565.501,1113.55,1114.39,0.000444292,0.000442544
416.0,0.0007187,566.216,1135.88,1136.69,0.0007187,0.000716951
429.0,0.00218713,566.931,1158.15,1158.93,0.00141159,0.00140984
442.0,0.0,567.646,1180.37,1181.12,0.000631851,0.000630101
455.0,0.00100099,568.361,1202.53,1203.25,0.00100099,0.000999239
468.0,0.0016839,569.075,1224.63,1225.33,0.0016839,0.00168215
481.0,0.000100837,569.79,1246.68,1247.35,0.000100837,9.90834e-05
494.0,0.00191145,570.505,1268.67,1269.31,0.000700326,0.000698571
507.0,0.00198177,571.22,1290.61,1291.22,0.00112472,0.00112296
520.0,0.00199804,571.935,1312.5,1313.08,0.00199804,0.00199628
533.0,0.000952926,572.65,1334.32,1334.88,0.000579525,0.000577766
546.0,0.00167849,573.365,1356.1,1356.63,0.00167849,0.00167673
559.0,0.00204267,574.08,1377.82,1378.32,0.00159965,0.00159789
572.0,0.000622568,574.795,1399.49,1399.96,0.000822461,0.000820699
585.0,0.00151185,575.51,1421.1,1421.54,0.00156939,0.00156763
598.0,0.0,576.225,1442.66,1443.07,0.00146766,0.0014659
611.0,0.0,576.94,1464.16,1464.55,0.000387579,0.000385814
624.0,0.0020524,577.655,1485.62,1485.98,0.00116636,0.00116459
637.0,0.000325271,578.37,1507.01,1507.35,0.000325271,0.000323504
650.0,3.0518e-06,579.085,1528.36,1528.67,0.000677373,0.000675605
663.0,0.000720544,579.8,1549.65,1549.93,0.00167728,0.00167551
676.0,0.00172783,580.515,1570.9,1571.15,0.000826658,0.000824889
689.0,0.000890173,581.23,1592.09,1592.31,0.00114754,0.00114577
702.0,0.000301938,581.944,1613.22,1613.42,0.000301938,0.000300167
715.0,0.00127871,582.659,1634.31,1634.48,0.00127871,0.00127694
728.0,0.000888965,583.374,1655.34,1655.48,0.000450459,0.000448688
741.0,0.000390631,584.089,1676.32,1676.44,0.000390631,0.000388861
754.0,0.000708527,584.804,1697.25,1697.34,0.000862198,0.000860428
767.0,0.00204916,585.519,1718.13,1718.2,0.00204916,0.00204739
780.0,0.000137331,586.234,1738.96,1739,0.000663767,0.000661998
793.0,0.0,586.949,1759.74,1759.75,4.88289e-05,4.706e-05
806.0,0.00160957,587.664,1780.47,1780.45,2.92465e-05,2.74785e-05
819.0,0.000247196,588.379,1801.14,1801.1,0.00117494,0.00117317
832.0,0.0,589.094,1821.77,1821.7,0.0,-1.76553e-06
845.0,0.00297468,589.809,1842.35,1842.25,0.00271312,0.00271136
858.0,0.0013496,590.524,1862.87,1862.75,0.000340213,0.00033845
871.0,0.00224524,591.239,1883.35,1883.2,0.00185461,0.00185285
884.0,0.000138857,591.954,1903.78,1903.6,0.00160004,0.00159828
897.0,0.00131762,592.669,1924.16,1923.96,0.00131762,0.00131586
910.0,0.00121831,593.384,1944.49,1944.26,0.00106088,0.00105912
923.0,0.0,594.099,1964.77,1964.51,0.000407416,0.000405657
936.0,0.0,594.813,1985,1984.72,0.000259403,0.000257644
949.0,0.00219005,595.528,2005.18,2004.88,0.00124647,0.00124471
962.0,0.000990311,596.243,2025.32,2024.98,0.00170545,0.00170369
975.0,0.000674449,596.958,2045.4,2045.05,0.000674449,0.000672693
988.0,0.0,597.673,2065.44,2065.06,0.000538008,0.000536253
1001.0,0.00272075,598.388,2085.43,2085.02,0.00190337,0.00190162
1014.0,0.00053254,599.103,2105.38,2104.94,0.00053254,0.000530786
1027.0,0.00111238,599.818,2125.27,2124.81,0.000749409,0.000747656
1040.0,0.0,600.533,2145.12,2144.63,0.000102235,0.000100483
1053.0,0.000603113,601.248,2164.92,2164.41,0.000829964,0.000828213
1066.0,2.07904e-05,601.963,2184.67,2184.14,0.00135297,0.00135122
1079.0,0.0040692,602.678,2204.38,2203.82,0.00271153,0.00270978
1092.0,0.0,603.393,2224.04,2223.45,0.000446072,0.000444322
1105.0,0.000540169,604.108,2243.65,2243.04,0.000307469,0.00030572
1118.0,0.0029806,604.823,2263.22,2262.58,0.000916559,0.00091481
1131.0,0.000387261,605.538,2282.74,2282.08,0.000604448,0.0006027
1144.0,4.45055e-05,606.253,2302.22,2301.53,4.45055e-05,4.27578e-05
1157.0,0.000796139,606.968,2321.65,2320.93,0.000796139,0.000794392
1170.0,0.0,607.682,2341.03,2340.29,0.000392348,0.000390602
1183.0,0.00298123,608.397,2360.37,2359.6,0.000154116,0.000152371
1196.0,0.00378665,609.112,2379.66,2378.87,0.00117558,0.00117384
1209.0,0.00254012,609.827,2398.91,2398.09,0.00254012,0.00253838
1222.0,0.000737901,610.542,2418.11,2417.27,0.000737901,0.000736157
1235.0,0.000792452,611.257,2437.27,2436.4,0.000792452,0.000790709
1248.0,0.00012487,611.972,2456.38,2455.49,0.00115511,0.00115337
1261.0,0.00259289,612.687,2475.45,2474.53,0.00179052,0.00178878
1274.0,0.00053947,613.402,2494.47,2493.53,0.0,-1.74119e-06
1287.0,0.0003034,614.117,2513.45,2512.49,0.00122854,0.0012268
1300.0,0.0020072,614.832,2532.39,2531.4,0.000275235,0.000273495
1313.0,0.0,615.547,2551.28,2550.27,9.61318e-05,9.43915e-05
1326.0,0.000644821,616.262,2570.12,2569.09,0.0,-1.74014e-06
1339.0,0.00225999,616.977,2588.93,2587.87,0.00173781,0.00173607
1352.0,0.00205189,617.692,2607.69,2606.6,0.00114449,0.00114275
1365.0,0.000412693,618.407,2626.4,2625.3,0.000203962,0.000202222
1378.0,0.00061176,619.122,2645.08,2643.95,0.0018033,0.00180156
1391.0,0.000448615,619.837,2663.71,2662.55,0.000448615,0.000446875
1404.0,0.000512703,620.551,2682.29,2681.12,0.000350958,0.000349217
1417.0,0.0,621.266,2700.84,2699.64,0.0,-1.7408e-06
1430.0,0.00122326,621.981,2719.34,2718.11,0.00123897,0.00123723
1443.0,0.0,622.696,2737.8,2736.55,3.83383e-05,3.65975e-05
1456.0,0.000984906,623.411,2756.22,2754.94,0.000984906,0.000983166
1469.0,0.00151916,624.126,2774.59,2773.29,0.000357061,0.000355321
1482.0,0.0,624.841,2792.93,2791.6,0.0,-1.73921e-06
1495.0,0.000469978,625.556,2811.22,2809.87,0.000469978,0.00046824
1508.0,0.0,626.271,2829.47,2828.1,0.0,-1.73774e-06
1521.0,0.0,626.986,2847.67,2846.28,0.0,-1.73715e-06
1534.0,1.22072e-05,627.701,2865.84,2864.42,0.000459042,0.000457305
1547.0,0.0,628.416,2883.96,2882.53,0.0,-1.73615e-06
1560.0,0.000843824,629.131,2902.05,2900.59,0.000843824,0.000842089
1573.0,0.0021657,629.846,2920.09,2918.6,0.000810381,0.000808646
1586.0,0.0,630.561,2938.09,2936.58,0.00120705,0.00120532
1599.0,0.00108975,631.276,2956.05,2954.52,0.000419623,0.00041789
1612.0,0.0,631.991,2973.97,2972.42,0.000608835,0.000607103
1625.0,0.000273454,632.706,2991.85,2990.27,0.000735803,0.000734071
1638.0,0.0,633.421,3009.69,3008.09,0.000588299,0.000586568
1651.0,0.0,634.135,3027.49,3025.87,0.0,-1.73082e-06
1664.0,0.00185473,634.85,3045.25,3043.6,0.000387897,0.000386167
1677.0,0.0,635.565,3062.97,3061.3,0.000161428,0.000159698
1690.0,0.000774014,636.28,3080.65,3078.96,0.000774014,0.000772284
1703.0,0.0,636.995,3098.29,3096.57,0.0,-1.72983e-06
1716.0,0.0,637.71,3115.89,3114.15,0.000264871,0.000263141
1729.0,0.00207891,638.425,3133.45,3131.69,0.00113591,0.00113418
1742.0,0.0,639.14,3150.97,3149.19,0.0,-1.72986e-06
1755.0,0.00113807,639.855,3168.45,3166.65,0.0,-1.72982e-06
1768.0,0.0,640.57,3185.9,3184.07,0.0,-1.72989e-06
1781.0,0.00262462,641.285,3203.3,3201.45,0.000969139,0.000967409
1794.0,0.00247082,642,3220.66,3218.79,0.00167938,0.00167765
1807.0,0.00103227,642.715,3237.99,3236.1,0.000163272,0.000161542
1820.0,0.00134279,643.43,3255.28,3253.36,0.00106851,0.00106678
1833.0,0.00160569,644.145,3272.53,3270.59,0.00160569,0.00160396
1846.0,0.000340594,644.86,3289.74,3287.78,0.000369841,0.000368112
1859.0,0.00141165,645.575,3306.92,3304.93,0.0014697,0.00146797
1872.0,0.0022137,646.29,3324.05,3322.05,0.00212088,0.00211915
1885.0,0.0,647.004,3341.15,3339.12,0.0,-1.728e-06
1898.0,0.00124259,647.719,3358.21,3356.16,0.000482185,0.000480457
1911.0,0.00248894,648.434,3375.23,3373.16,0.00113336,0.00113163
1924.0,0.0,649.149,3392.22,3390.12,0.0,-1.72636e-06
1937.0,0.0,649.864,3409.16,3407.05,0.0,-1.72568e-06
1950.0,0.00112523,650.579,3426.07,3423.94,0.00112523,0.0011235
1963.0,0.0,651.294,3442.95,3440.79,0.0,-1.72459e-06
1976.0,0.00126116,652.009,3459.78,3457.6,0.0,-1.72418e-06
1989.0,0.00250966,652.724,3476.58,3474.38,0.00194889,0.00194717
2002.0,0.000347906,653.439,3493.34,3491.12,0.000347906,0.000346182
2015.0,0.000365326,654.154,3510.07,3507.83,0.00134209,0.00134037
2028.0,0.000608708,654.869,3526.76,3524.49,0.00127362,0.0012719
2041.0,0.00501723,655.584,3543.41,3541.12,0.000836194,0.000834471
2047.0,0.000554411,655.914,3551.09,3548.79,0.000128176,0.000126453