Folder: 2025-diyraman-bio/data/processed/processed_data/2024-09-03 (part 13)

File: 2024-09-03_glycinepowder_n_y_y_solid_10000_0_20.csv
Pixels #,Intensity (a.u.),Wavelength (nm),Raman shift (cm-1),Raman shift (cm-1) adjusted,Filtered Intensity (a.u.),Baselined Filtered Intensity (a.u.)
0.0,0.795199,543.337,392.223,393.994,0.794854,-0.0434656
12.0,0.795143,543.997,414.551,416.293,0.795143,-0.0431799
24.0,0.793833,544.657,436.825,438.537,0.794128,-0.0442043
36.0,0.795595,545.317,459.044,460.728,0.795282,-0.0430658
48.0,0.797282,545.977,481.21,482.866,0.797253,-0.0411163
60.0,0.809828,546.637,503.323,504.95,0.809828,-0.0285687
72.0,0.827477,547.297,525.382,526.981,0.827477,-0.010951
84.0,0.844456,547.957,547.388,548.958,0.844456,0.00599514
96.0,0.848799,548.617,569.341,570.883,0.848511,0.010018
108.0,0.849847,549.277,591.241,592.755,0.849847,0.0113232
120.0,0.85014,549.937,613.089,614.575,0.849976,0.011423
132.0,0.848319,550.597,634.884,636.342,0.848319,0.00973841
144.0,0.850972,551.257,656.627,658.057,0.850972,0.0123653
156.0,0.856412,551.917,678.319,679.72,0.856412,0.017781
168.0,0.867403,552.577,699.958,701.332,0.867403,0.0287503
180.0,0.883264,553.237,721.546,722.892,0.883264,0.0445937
192.0,0.91289,553.897,743.082,744.4,0.91289,0.0742087
204.0,0.955839,554.557,764.567,765.858,0.955839,0.117156
216.0,1.02499,555.217,786.001,787.264,1.02499,0.186307
228.0,1.11782,555.876,807.384,808.62,1.11782,0.279137
240.0,1.22819,556.536,828.716,829.924,1.22819,0.389507
252.0,1.33323,557.196,849.998,851.179,1.33323,0.494547
264.0,1.41176,557.856,871.23,872.383,1.41176,0.573077
276.0,1.49973,558.516,892.411,893.537,1.49899,0.660307
288.0,1.47217,559.176,913.542,914.641,1.47217,0.633487
300.0,1.47653,559.836,934.624,935.695,1.47644,0.637757
312.0,1.47768,560.496,955.656,956.7,1.47689,0.638207
324.0,1.48199,561.156,976.638,977.655,1.48177,0.643087
336.0,1.49023,561.816,997.571,998.562,1.49023,0.651547
348.0,1.50659,562.476,1018.45,1019.42,1.50659,0.667907
360.0,1.52944,563.136,1039.29,1040.23,1.52944,0.690757
372.0,1.52865,563.796,1060.08,1060.99,1.52865,0.689967
384.0,1.53321,564.456,1080.81,1081.7,1.53341,0.694727
396.0,1.54222,565.116,1101.5,1102.36,1.54175,0.703067
408.0,1.5444,565.776,1122.14,1122.97,1.5444,0.705717
420.0,1.55335,566.436,1142.74,1143.54,1.5528,0.714117
432.0,1.55203,567.096,1163.28,1164.06,1.55203,0.713347
444.0,1.55714,567.756,1183.78,1184.53,1.55714,0.718457
456.0,1.56522,568.416,1204.23,1204.95,1.56522,0.726537
468.0,1.57025,569.075,1224.63,1225.33,1.57025,0.731567
480.0,1.57505,569.735,1244.99,1245.66,1.57505,0.736367
492.0,1.5785,570.395,1265.29,1265.94,1.5785,0.739817
504.0,1.5858,571.055,1285.55,1286.17,1.5858,0.747117
516.0,1.6094,571.715,1305.77,1306.36,1.6094,0.770717
528.0,1.66605,572.375,1325.94,1326.5,1.66605,0.827367
540.0,1.60176,573.035,1346.06,1346.6,1.60176,0.763077
552.0,1.60486,573.695,1366.13,1366.65,1.60486,0.766177
564.0,1.61794,574.355,1386.16,1386.65,1.61794,0.779257
576.0,1.64502,575.015,1406.14,1406.61,1.64502,0.806337
588.0,1.62567,575.675,1426.08,1426.52,1.62594,0.787257
600.0,1.63229,576.335,1445.97,1446.38,1.63278,0.794097
612.0,1.6247,576.995,1465.82,1466.2,1.6247,0.786017
624.0,1.62471,577.655,1485.62,1485.98,1.62499,0.786307
636.0,1.63352,578.315,1505.37,1505.71,1.63352,0.794837
648.0,1.63338,578.975,1525.08,1525.39,1.63353,0.794847
660.0,1.6346,579.635,1544.75,1545.03,1.6346,0.795917
672.0,1.64756,580.295,1564.37,1564.63,1.6469,0.808217
684.0,1.63635,580.955,1583.94,1584.18,1.63635,0.797667
696.0,1.63479,581.614,1603.47,1603.68,1.63477,0.796087
708.0,1.63696,582.274,1622.96,1623.15,1.63692,0.798237
720.0,1.63389,582.934,1642.4,1642.56,1.63391,0.795227
732.0,1.64012,583.594,1661.8,1661.94,1.64012,0.801437
744.0,1.63706,584.254,1681.16,1681.27,1.63684,0.798157
756.0,1.63601,584.914,1700.47,1700.55,1.63568,0.796997
768.0,1.63743,585.574,1719.74,1719.8,1.63729,0.798607
780.0,1.6357,586.234,1738.96,1739,1.63593,0.797247
792.0,1.63725,586.894,1758.14,1758.15,1.63725,0.798567
804.0,1.63631,587.554,1777.28,1777.27,1.63631,0.797627
816.0,1.6353,588.214,1796.38,1796.34,1.6353,0.796617
828.0,1.6358,588.874,1815.43,1815.37,1.63583,0.797147
840.0,1.63484,589.534,1834.44,1834.35,1.63551,0.796827
852.0,1.63726,590.194,1853.41,1853.29,1.63669,0.798007
864.0,1.63922,590.854,1872.33,1872.2,1.63864,0.799957
876.0,1.63575,591.514,1891.21,1891.05,1.63573,0.797047
888.0,1.63529,592.174,1910.05,1909.87,1.63562,0.796937
900.0,1.63199,592.834,1928.85,1928.64,1.63199,0.793307
912.0,1.63119,593.494,1947.61,1947.38,1.63119,0.792507
924.0,1.62679,594.154,1966.33,1966.07,1.62679,0.788107
936.0,1.62363,594.813,1985,1984.72,1.62338,0.784697
948.0,1.62052,595.473,2003.63,2003.33,1.6201,0.781417
960.0,1.61523,596.133,2022.22,2021.89,1.61515,0.776467
972.0,1.61249,596.793,2040.77,2040.42,1.61244,0.773757
984.0,1.60647,597.453,2059.28,2058.91,1.60647,0.767787
996.0,1.60124,598.113,2077.75,2077.35,1.60124,0.762557
1008.0,1.59683,598.773,2096.18,2095.75,1.5961,0.757417
1020.0,1.59286,599.433,2114.56,2114.12,1.59211,0.753427
1032.0,1.58852,600.093,2132.91,2132.44,1.58852,0.749837
1044.0,1.58312,600.753,2151.22,2150.72,1.58312,0.744437
1056.0,1.57727,601.413,2169.48,2168.96,1.57745,0.738767
1068.0,1.5729,602.073,2187.71,2187.17,1.57259,0.733907
1080.0,1.56918,602.733,2205.89,2205.33,1.56918,0.730497
1092.0,1.56635,603.393,2224.04,2223.45,1.5667,0.728017
1104.0,1.56355,604.053,2242.15,2241.54,1.56356,0.724877
1116.0,1.56007,604.713,2260.21,2259.58,1.56062,0.721937
1128.0,1.55566,605.373,2278.24,2277.58,1.55566,0.716977
1140.0,1.55252,606.033,2296.23,2295.55,1.55252,0.713837
1152.0,1.54788,606.693,2314.18,2313.47,1.54776,0.709077
1164.0,1.54466,607.353,2332.09,2331.36,1.54466,0.705977
1176.0,1.54043,608.012,2349.96,2349.21,1.54055,0.701867
1188.0,1.53785,608.672,2367.79,2367.02,1.53785,0.699167
1200.0,1.5327,609.332,2385.59,2384.79,1.53317,0.694487
1212.0,1.52796,609.992,2403.34,2402.52,1.52809,0.689407
1224.0,1.52367,610.652,2421.06,2420.22,1.52367,0.684987
1236.0,1.5185,611.312,2438.74,2437.87,1.5185,0.679817
1248.0,1.51665,611.972,2456.38,2455.49,1.51581,0.677127
1260.0,1.51005,612.632,2473.98,2473.07,1.51005,0.671367
1272.0,1.50484,613.292,2491.55,2490.61,1.50484,0.666157
1284.0,1.50089,613.952,2509.07,2508.12,1.50068,0.661997
1296.0,1.49524,614.612,2526.56,2525.59,1.49524,0.656557
1308.0,1.48748,615.272,2544.02,2543.01,1.48748,0.648797
1320.0,1.48193,615.932,2561.43,2560.41,1.48193,0.643247
1332.0,1.47443,616.592,2578.81,2577.76,1.47443,0.635747
1344.0,1.47202,617.252,2596.15,2595.08,1.47102,0.632337
1356.0,1.46388,617.912,2613.45,2612.36,1.46388,0.625197
1368.0,1.45752,618.572,2630.72,2629.6,1.45752,0.618837
1380.0,1.45,619.232,2647.95,2646.81,1.45,0.611317
1392.0,1.44348,619.892,2665.14,2663.98,1.44348,0.604797
1404.0,1.43838,620.551,2682.29,2681.12,1.43794,0.599257
1416.0,1.43453,621.211,2699.41,2698.21,1.43433,0.595647
1428.0,1.42932,621.871,2716.5,2715.27,1.42932,0.590637
1440.0,1.42508,622.531,2733.54,2732.3,1.42508,0.586397
1452.0,1.41795,623.191,2750.56,2749.29,1.41881,0.580127
1464.0,1.41555,623.851,2767.53,2766.24,1.41516,0.576477
1476.0,1.40984,624.511,2784.47,2783.16,1.40984,0.571157
1488.0,1.40485,625.171,2801.37,2800.04,1.40539,0.566707
1500.0,1.40097,625.831,2818.24,2816.89,1.40097,0.562287
1512.0,1.3965,626.491,2835.07,2833.7,1.3965,0.557817
1524.0,1.3921,627.151,2851.87,2850.47,1.3921,0.553417
1536.0,1.38884,627.811,2868.63,2867.21,1.38864,0.549957
1548.0,1.38556,628.471,2885.36,2883.92,1.38556,0.546877
1560.0,1.38204,629.131,2902.05,2900.59,1.38194,0.543257
1572.0,1.3747,629.791,2918.7,2917.22,1.37458,0.535897
1584.0,1.37041,630.451,2935.32,2933.82,1.37031,0.531627
1596.0,1.37502,631.111,2951.91,2950.38,1.37502,0.536337
1608.0,1.42257,631.771,2968.46,2966.92,1.42257,0.583887
1620.0,1.36816,632.431,2984.98,2983.41,1.36816,0.529477
1632.0,1.36049,633.091,3001.46,2999.87,1.36049,0.521807
1644.0,1.33246,633.75,3017.91,3016.3,1.33246,0.493777
1656.0,1.31149,634.41,3034.33,3032.69,1.31149,0.472807
1668.0,1.30213,635.07,3050.71,3049.05,1.30213,0.463447
1680.0,1.29252,635.73,3067.05,3065.38,1.29252,0.453837
1692.0,1.28365,636.39,3083.36,3081.67,1.28365,0.444967
1704.0,1.27623,637.05,3099.64,3097.93,1.27623,0.437547
1716.0,1.27106,637.71,3115.89,3114.15,1.27102,0.432337
1728.0,1.26762,638.37,3132.1,3130.34,1.26773,0.429047
1740.0,1.2626,639.03,3148.28,3146.5,1.2626,0.423917
1752.0,1.25145,639.69,3164.42,3162.62,1.25145,0.412767
1764.0,1.24068,640.35,3180.53,3178.71,1.24068,0.401997
1776.0,1.23122,641.01,3196.61,3194.77,1.23136,0.392677
1788.0,1.22399,641.67,3212.65,3210.79,1.22399,0.385307
1800.0,1.21673,642.33,3228.67,3226.78,1.21648,0.377797
1812.0,1.20818,642.99,3244.65,3242.74,1.20818,0.369497
1824.0,1.20018,643.65,3260.59,3258.67,1.20043,0.361747
1836.0,1.19319,644.31,3276.51,3274.56,1.19319,0.354507
1848.0,1.18688,644.97,3292.39,3290.42,1.18688,0.348197
1860.0,1.17964,645.63,3308.23,3306.25,1.17964,0.340957
1872.0,1.1754,646.29,3324.05,3322.05,1.1754,0.336717
1884.0,1.16814,646.949,3339.83,3337.81,1.16814,0.329457
1896.0,1.16255,647.609,3355.59,3353.54,1.16255,0.323867
1908.0,1.15653,648.269,3371.31,3369.24,1.15653,0.317847
1920.0,1.15144,648.929,3386.99,3384.91,1.15059,0.311907
1932.0,1.14556,649.589,3402.65,3400.54,1.14556,0.306877
1944.0,1.13763,650.249,3418.27,3416.15,1.13763,0.298947
1956.0,1.13165,650.909,3433.87,3431.72,1.13165,0.292967
1968.0,1.12525,651.569,3449.43,3447.26,1.12525,0.286567
1980.0,1.12,652.229,3464.96,3462.77,1.12,0.281317
1992.0,1.1144,652.889,3480.45,3478.25,1.11465,0.275967
2004.0,1.10854,653.549,3495.92,3493.69,1.10854,0.269857
2016.0,1.10262,654.209,3511.36,3509.11,1.10278,0.264097
2028.0,1.09661,654.869,3526.76,3524.49,1.09661,0.257927
2040.0,1.09231,655.529,3542.13,3539.85,1.09195,0.253267
2047.0,1.08972,655.914,3551.09,3548.79,1.08911,0.250427