Folder: 2025-diyraman-bio/data/processed/processed_data/2024-08-27

Note: README.md
# DIY Raman spectroscopy for biological research

[![run with conda](https://img.shields.io/badge/run%20with-conda-3EB049?labelColor=000000&logo=anaconda)](https://docs.conda.io/projects/miniconda/en/latest/)

## Purpose

This repository accompanies the pub, "DIY Raman spectroscopy for biological research." It contains the data acquired and analyzed in this effort, Jupyter notebooks for calibration and figure generation, and a summary of data from the spectral library.

## Installation and Setup

This repository uses conda to manage software environments and installations. You can find operating system-specific instructions for installing miniconda [here](https://docs.conda.io/projects/miniconda/en/latest/). After installing conda and [mamba](https://mamba.readthedocs.io/en/latest/), run the following command to create the pipeline run environment.

```{bash}
TODO: Replace <NAME> with the name of your environment
mamba env create -n <NAME> --file envs/dev.yml
conda activate <NAME>
```

<details><summary>Developer Notes (click to expand/collapse)</summary>

1. Install your pre-commit hooks:

    ```{bash}
    pre-commit install
    ```

    This installs the pre-commit hooks defined in your config (`./.pre-commit-config.yaml`).

2. Export your conda environment before sharing:

    As your project develops, the number of dependencies in your environment may increase. Whenever you install new dependencies (using either `pip install` or `mamba install`), you should update the environment file using the following command.

    ```{bash}
    conda env export --from-history --no-builds > envs/dev.yml
    ```

    `--from-history` only exports packages that were explicitly added by you (e.g., the packages you installed with `pip` or `mamba`) and `--no-builds` removes build specification from the exported packages to increase portability between different platforms.
</details>

## Data

The data shared here is collected on the DIY spontaneous Raman system at Arcadia Science, which is the OpenRaman Starter Edition (532 nm excitation), originally created by Luc B (https://www.open-raman.org/about/). The input files are the raw data in CSV format collected from a range of biological research samples that are in the Arcadia spectral library and calibration standards. The outputs include calibration equations for each acquisition day, calibrated data with additional pre-processing, quick look graphs for each sample's data, and performance metrics for the system. 

## Overview

### Description of the folder structure

* [data/](./data/): Data for each sample presented in the pub. It contains folders for raw data (meaning as acquired on the spectrometer) and processed (meaning calibrated or otherwise modified) These are organized into subfolders for each date. 
* [notebooks/](./notebooks/): Jupyter notebooks for gnenerating calibration correction equations and plotting processed data to generate the figures shown in the pub.
* [scripts/](./scripts/): Python scr

File: 2024-08-27_borosilicatetube_n_n_y_liquid_1000_0_5.csv
Pixels #,Intensity (a.u.),Wavelength (nm),Raman shift (cm-1),Raman shift (cm-1) adjusted,Filtered Intensity (a.u.),Baselined Filtered Intensity (a.u.)
0.0,7.55734,543.324,391.783,392.437,7.5571,-0.0129026
12.0,7.55837,543.984,414.098,414.726,7.55754,-0.0124636
24.0,7.55611,544.644,436.359,436.962,7.55632,-0.0136864
36.0,7.55972,545.303,458.566,459.143,7.55901,-0.0110011
48.0,7.55986,545.963,480.719,481.271,7.55943,-0.0105874
60.0,7.55612,546.622,502.819,503.346,7.55651,-0.0135155
72.0,7.55947,547.282,524.866,525.367,7.55805,-0.0119855
84.0,7.55767,547.941,546.859,547.335,7.55767,-0.0123773
96.0,7.55952,548.601,568.8,569.251,7.55881,-0.0112508
108.0,7.55803,549.26,590.688,591.114,7.55803,-0.0120459
120.0,7.56074,549.92,612.523,612.924,7.55861,-0.0114828
132.0,7.55778,550.579,634.307,634.682,7.55776,-0.0123515
144.0,7.55885,551.239,656.038,656.388,7.5585,-0.0116321
156.0,7.55369,551.898,677.717,678.043,7.55432,-0.0158344
168.0,7.55734,552.558,699.344,699.645,7.55757,-0.0126087
180.0,7.55702,553.218,720.92,721.196,7.55667,-0.0135349
192.0,7.55929,553.877,742.444,742.696,7.55907,-0.0111629
204.0,7.55945,554.537,763.917,764.144,7.56013,-0.0101326
216.0,7.56379,555.196,785.339,785.542,7.56379,-0.00650379
228.0,7.56463,555.856,806.711,806.889,7.56368,-0.00664617
240.0,7.56802,556.515,828.031,828.185,7.56802,-0.00233952
252.0,7.56996,557.175,849.301,849.431,7.56958,-0.000813365
264.0,7.57174,557.834,870.521,870.626,7.57174,0.00131254
276.0,7.56703,558.494,891.691,891.772,7.56901,-0.00145157
288.0,7.56867,559.153,912.811,912.868,7.56867,-0.00182584
300.0,7.56991,559.813,933.881,933.913,7.56991,-0.000620191
312.0,7.57012,560.472,954.901,954.91,7.57012,-0.000444524
324.0,7.56913,561.132,975.872,975.857,7.56924,-0.00135889
336.0,7.56973,561.791,996.794,996.755,7.5697,-0.000933396
348.0,7.57036,562.451,1017.67,1017.6,7.57036,-0.000308019
360.0,7.57316,563.111,1038.49,1038.4,7.57246,0.00175734
372.0,7.57103,563.77,1059.27,1059.15,7.57103,0.000292836
384.0,7.56946,564.43,1079.99,1079.86,7.57001,-0.000761628
396.0,7.56956,565.089,1100.67,1100.51,7.56956,-0.00124612
408.0,7.57112,565.749,1121.3,1121.12,7.57106,0.000219363
420.0,7.56875,566.408,1141.88,1141.68,7.5691,-0.00177516
432.0,7.5717,567.068,1162.42,1162.19,7.5716,0.00069016
444.0,7.57028,567.727,1182.9,1182.65,7.57028,-0.000664544
456.0,7.573,568.387,1203.34,1203.07,7.573,0.00202078
468.0,7.5711,569.046,1223.73,1223.43,7.57184,0.000826341
480.0,7.57315,569.706,1244.08,1243.75,7.5731,0.00205206
492.0,7.56997,570.365,1264.37,1264.03,7.57079,-0.000292008
504.0,7.56985,571.025,1284.63,1284.26,7.56994,-0.001176
516.0,7.57172,571.685,1304.83,1304.44,7.57147,0.00031994
528.0,7.57173,572.344,1324.99,1324.57,7.57191,0.000725945
540.0,7.57085,573.004,1345.1,1344.66,7.57104,-0.000177945
552.0,7.57331,573.663,1365.16,1364.7,7.57241,0.00115832
564.0,7.57131,574.323,1385.18,1384.69,7.57248,0.00119471
576.0,7.57367,574.982,1405.15,1404.64,7.57397,0.00265121
588.0,7.57194,575.642,1425.08,1424.55,7.57226,0.000907928
600.0,7.57045,576.301,1444.96,1444.41,7.57045,-0.000935328
612.0,7.5701,576.961,1464.79,1464.22,7.57178,0.000361338
624.0,7.57019,577.62,1484.58,1483.99,7.57138,-7.19636e-05
636.0,7.57267,578.28,1504.33,1503.71,7.57239,0.000904797
648.0,7.57006,578.939,1524.03,1523.39,7.57045,-0.00106835
660.0,7.57266,579.599,1543.68,1543.02,7.57266,0.00110851
672.0,7.57286,580.259,1563.3,1562.61,7.57308,0.00149549
684.0,7.57446,580.918,1582.86,1582.15,7.57305,0.0014326
696.0,7.5713,581.578,1602.38,1601.65,7.5713,-0.000350252
708.0,7.57185,582.237,1621.86,1621.1,7.57273,0.00104686
720.0,7.56962,582.897,1641.29,1640.52,7.56962,-0.00209592
732.0,7.57231,583.556,1660.68,1659.88,7.57231,0.000561167
744.0,7.57204,584.216,1680.03,1679.21,7.572,0.000218285
756.0,7.57377,584.875,1699.33,1698.49,7.57377,0.00195537
768.0,7.57114,585.535,1718.59,1717.72,7.57114,-0.000707538
780.0,7.5709,586.194,1737.8,1736.92,7.5709,-0.000980571
792.0,7.57026,586.854,1756.98,1756.07,7.57126,-0.000653651
804.0,7.57055,587.513,1776.11,1775.17,7.57122,-0.000726786
816.0,7.56961,588.173,1795.19,1794.24,7.56961,-0.00237004
828.0,7.57143,588.833,1814.24,1813.26,7.57143,-0.000583478
840.0,7.56992,589.492,1833.24,1832.24,7.56992,-0.002127
852.0,7.57399,590.152,1852.19,1851.17,7.57273,0.000649285
864.0,7.57448,590.811,1871.11,1870.07,7.57448,0.00236563
876.0,7.57183,591.471,1889.98,1888.92,7.57183,-0.000317831
888.0,7.57191,592.13,1908.82,1907.73,7.57332,0.00113878
900.0,7.57223,592.79,1927.61,1926.5,7.57223,1.5558e-05
912.0,7.57119,593.449,1946.35,1945.23,7.57233,8.24826e-05
924.0,7.57316,594.109,1965.06,1963.91,7.5731,0.000819351
936.0,7.57118,594.768,1983.72,1982.55,7.5713,-0.00101378
948.0,7.57085,595.428,2002.35,2001.16,7.57094,-0.00140689
960.0,7.56898,596.087,2020.93,2019.72,7.56898,-0.00340014
972.0,7.57253,596.747,2039.47,2038.24,7.57185,-0.000563615
984.0,7.56999,597.407,2057.97,2056.72,7.56982,-0.0026272
996.0,7.57154,598.066,2076.43,2075.15,7.57135,-0.00113111
1008.0,7.57181,598.726,2094.85,2093.55,7.57022,-0.00229528
1020.0,7.56955,599.385,2113.23,2111.91,7.56955,-0.00299976
1032.0,7.57061,600.045,2131.57,2130.23,7.57061,-0.00197471
1044.0,7.56642,600.704,2149.86,2148.5,7.56786,-0.00475998
1056.0,7.57031,601.364,2168.12,2166.74,7.57031,-0.00234576
1068.0,7.56872,602.023,2186.34,2184.94,7.56872,-0.00397201
1080.0,7.56906,602.683,2204.52,2203.09,7.56954,-0.00318869
1092.0,7.56804,603.342,2222.66,2221.21,7.56957,-0.00319579
1104.0,7.56982,604.002,2240.75,2239.29,7.56982,-0.00298336
1116.0,7.57047,604.661,2258.81,2257.33,7.57011,-0.00273148
1128.0,7.56886,605.321,2276.83,2275.33,7.56843,-0.00445014
1140.0,7.56873,605.981,2294.81,2293.28,7.56952,-0.00339942
1152.0,7.56775,606.64,2312.75,2311.21,7.5679,-0.00505932
1164.0,7.56683,607.3,2330.66,2329.09,7.56649,-0.00650986
1176.0,7.56902,607.959,2348.52,2346.93,7.56902,-0.0040212
1188.0,7.56534,608.619,2366.34,2364.73,7.56604,-0.00704325
1200.0,7.56688,609.278,2384.13,2382.5,7.56688,-0.00624613
1212.0,7.56704,609.938,2401.88,2400.23,7.56704,-0.00612987
1224.0,7.56475,610.597,2419.59,2417.92,7.56528,-0.00793455
1236.0,7.56523,611.257,2437.26,2435.57,7.56641,-0.00685029
1248.0,7.5679,611.916,2454.89,2453.18,7.56586,-0.00744703
1260.0,7.56419,612.576,2472.48,2470.75,7.56392,-0.00943481
1272.0,7.56496,613.235,2490.04,2488.29,7.56496,-0.00844388
1284.0,7.56416,613.895,2507.56,2505.79,7.56416,-0.0092943
1296.0,7.56452,614.555,2525.04,2523.25,7.56596,-0.007546
1308.0,7.56225,615.214,2542.49,2540.68,7.56277,-0.0107889
1320.0,7.56365,615.874,2559.89,2558.06,7.56365,-0.00996325
1332.0,7.56449,616.533,2577.26,2575.41,7.5637,-0.00996903
1344.0,7.56263,617.193,2594.6,2592.73,7.56263,-0.0110962
1356.0,7.56502,617.852,2611.89,2610,7.56502,-0.00876488
1368.0,7.56222,618.512,2629.15,2627.24,7.56222,-0.0116251
1380.0,7.56179,619.171,2646.37,2644.44,7.56179,-0.012117
1392.0,7.55939,619.831,2663.56,2661.61,7.56078,-0.0131906
1404.0,7.5607,620.49,2680.71,2678.74,7.56034,-0.013696
1416.0,7.56171,621.15,2697.82,2695.83,7.56116,-0.0129432
1428.0,7.56069,621.809,2714.89,2712.89,7.5606,-0.0135723
1440.0,7.55971,622.469,2731.93,2729.91,7.56084,-0.0134033
1452.0,7.55871,623.128,2748.94,2746.89,7.55975,-0.0145663
1464.0,7.5628,623.788,2765.91,2763.84,7.5612,-0.0131913
1476.0,7.55672,624.448,2782.84,2780.75,7.55804,-0.0164284
1488.0,7.55814,625.107,2799.73,2797.63,7.5581,-0.0164477
1500.0,7.55855,625.767,2816.59,2814.47,7.55855,-0.0160793
1512.0,7.55906,626.426,2833.42,2831.28,7.55946,-0.015253
1524.0,7.56073,627.086,2850.21,2848.05,7.56059,-0.0142089
1536.0,7.55977,627.745,2866.96,2864.78,7.55952,-0.015367
1548.0,7.55929,628.405,2883.68,2881.48,7.55907,-0.0159074
1560.0,7.56131,629.064,2900.37,2898.15,7.56131,-0.0137601
1572.0,7.56088,629.724,2917.02,2914.78,7.56088,-0.014285
1584.0,7.55875,630.383,2933.63,2931.37,7.55882,-0.0164423
1596.0,7.55923,631.043,2950.21,2947.93,7.55925,-0.0161119
1608.0,7.55746,631.702,2966.76,2964.46,7.55822,-0.0172437
1620.0,7.55954,632.362,2983.27,2980.95,7.55954,-0.0160279
1632.0,7.5589,633.022,2999.74,2997.41,7.55858,-0.0170944
1644.0,7.55781,633.681,3016.18,3013.83,7.5579,-0.0178835
1656.0,7.55988,634.341,3032.59,3030.22,7.55988,-0.0160151
1668.0,7.55816,635,3048.97,3046.57,7.5589,-0.017109
1680.0,7.55864,635.66,3065.3,3062.89,7.5594,-0.0167252
1692.0,7.55951,636.319,3081.61,3079.18,7.55876,-0.017484
1704.0,7.55886,636.979,3097.88,3095.44,7.55886,-0.0175052
1716.0,7.5572,637.638,3114.12,3111.65,7.5572,-0.019289
1728.0,7.55754,638.298,3130.33,3127.84,7.55675,-0.0198654
1740.0,7.55955,638.957,3146.5,3143.99,7.55955,-0.0171945
1752.0,7.55946,639.617,3162.63,3160.11,7.55902,-0.0178562
1764.0,7.55855,640.276,3178.74,3176.2,7.55855,-0.0184606
1776.0,7.55665,640.936,3194.81,3192.25,7.55667,-0.0204776
1788.0,7.55668,641.596,3210.85,3208.27,7.55677,-0.0205175
1800.0,7.55684,642.255,3226.85,3224.26,7.55728,-0.0201501
1812.0,7.5582,642.915,3242.83,3240.21,7.5582,-0.0193755
1824.0,7.55692,643.574,3258.77,3256.14,7.55738,-0.0203437
1836.0,7.55769,644.234,3274.67,3272.03,7.55804,-0.0198347
1848.0,7.56072,644.893,3290.55,3287.88,7.56107,-0.0169584
1860.0,7.56262,645.553,3306.39,3303.71,7.56323,-0.0149545
1872.0,7.57247,646.212,3322.2,3319.5,7.57247,-0.00587256
1884.0,7.59094,646.872,3337.98,3335.26,7.59094,0.0124386
1896.0,7.62327,647.531,3353.73,3350.99,7.6231,0.0444416
1908.0,7.5972,648.191,3369.44,3366.68,7.59718,0.0183701
1920.0,7.62538,648.85,3385.12,3382.34,7.62538,0.046422
1932.0,7.61082,649.51,3400.77,3397.98,7.61082,0.0317189
1944.0,7.62314,650.17,3416.39,3413.58,7.62314,0.043901
1956.0,7.65365,650.829,3431.98,3429.14,7.65365,0.0742806
1968.0,7.68291,651.489,3447.53,3444.68,7.68291,0.103421
1980.0,7.67109,652.148,3463.05,3460.19,7.67292,0.0933257
1992.0,7.67839,652.808,3478.55,3475.66,7.67839,0.0987064
2004.0,7.71656,653.467,3494.01,3491.1,7.71656,0.136803
2016.0,7.65198,654.127,3509.44,3506.52,7.65198,0.0721678
2028.0,7.70719,654.786,3524.83,3521.9,7.70737,0.127517
2040.0,7.68985,655.446,3540.2,3537.25,7.69419,0.114315
2047.0,7.76909,655.831,3549.15,3546.19,7.73851,0.158631

File: 2024-08-27_magnesiumsulfateheptahydrate_n_n_y_solid_5000_0_5.csv
Pixels #,Intensity (a.u.),Wavelength (nm),Raman shift (cm-1),Raman shift (cm-1) adjusted,Filtered Intensity (a.u.),Baselined Filtered Intensity (a.u.)
0.0,1.54216,543.317,391.539,390.861,1.54013,0.00495836
12.0,1.54093,543.978,413.886,413.173,1.54093,0.00575836
24.0,1.53982,544.638,436.178,435.431,1.53982,0.00464836
36.0,1.54123,545.299,458.416,457.635,1.54123,0.00605836
48.0,1.5419,545.959,480.6,479.785,1.54139,0.00621836
60.0,1.53978,546.62,502.731,501.882,1.5394,0.00422836
72.0,1.5406,547.28,524.809,523.925,1.54018,0.00500836
84.0,1.54023,547.94,546.833,545.915,1.54048,0.00530836
96.0,1.54083,548.601,568.804,567.852,1.54029,0.00511836
108.0,1.54045,549.261,590.722,589.737,1.54045,0.00527836
120.0,1.54098,549.922,612.588,611.568,1.54058,0.00540836
132.0,1.53858,550.582,634.401,633.348,1.53864,0.00346836
144.0,1.54034,551.243,656.162,655.075,1.54034,0.00516852
156.0,1.5398,551.903,677.871,676.751,1.53967,0.00449873
168.0,1.53989,552.564,699.528,698.374,1.53952,0.00434906
180.0,1.53933,553.224,721.133,719.946,1.53933,0.0041595
192.0,1.5402,553.885,742.687,741.466,1.53962,0.00445002
204.0,1.5397,554.545,764.19,762.935,1.53979,0.00462066
216.0,1.54078,555.205,785.641,784.353,1.5405,0.00533147
228.0,1.54074,555.866,807.041,805.721,1.54074,0.00557232
240.0,1.54043,556.526,828.391,827.037,1.54084,0.00567318
252.0,1.54137,557.187,849.689,848.303,1.54109,0.00592403
264.0,1.54104,557.847,870.938,869.519,1.54067,0.00550489
276.0,1.54113,558.508,892.136,890.684,1.54122,0.00605574
288.0,1.54014,559.168,913.284,911.799,1.5402,0.0050366
300.0,1.54057,559.829,934.382,932.865,1.54083,0.00566745
312.0,1.5408,560.489,955.431,953.881,1.54054,0.00537831
324.0,1.56152,561.15,976.43,974.847,1.56152,0.0263592
336.0,1.57672,561.81,997.379,995.765,1.57672,0.04156
348.0,1.54606,562.47,1018.28,1016.63,1.54606,0.0109009
360.0,1.54093,563.131,1039.13,1037.45,1.54083,0.00567173
372.0,1.54489,563.791,1059.93,1058.22,1.54448,0.00932258
384.0,1.54206,564.452,1080.69,1078.94,1.54236,0.00720344
396.0,1.54274,565.112,1101.39,1099.62,1.54243,0.00727429
408.0,1.54167,565.773,1122.05,1120.24,1.54153,0.00637515
420.0,1.54219,566.433,1142.66,1140.82,1.54221,0.007056
432.0,1.54167,567.094,1163.22,1161.35,1.54111,0.00595686
444.0,1.53975,567.754,1183.73,1181.83,1.53993,0.00477771
456.0,1.54003,568.415,1204.2,1202.26,1.53987,0.0047186
468.0,1.53941,569.075,1224.62,1222.65,1.53941,0.00425958
480.0,1.5382,569.735,1244.99,1242.99,1.53823,0.00308077
492.0,1.53727,570.396,1265.31,1263.28,1.53771,0.00256235
504.0,1.53723,571.056,1285.59,1283.52,1.53723,0.00208431
516.0,1.53807,571.717,1305.81,1303.72,1.53807,0.0029266
528.0,1.53876,572.377,1326,1323.87,1.53844,0.00329926
540.0,1.53709,573.038,1346.13,1343.98,1.53723,0.00209217
552.0,1.53809,573.698,1366.22,1364.04,1.53716,0.0020254
564.0,1.53726,574.359,1386.27,1384.05,1.5377,0.00256895
576.0,1.53776,575.019,1406.26,1404.02,1.53745,0.00232282
588.0,1.53758,575.68,1426.22,1423.94,1.53758,0.00245702
600.0,1.53736,576.34,1446.12,1443.81,1.53731,0.00219153
612.0,1.53652,577,1465.98,1463.64,1.53668,0.00156626
624.0,1.53716,577.661,1485.8,1483.43,1.53697,0.00186123
636.0,1.53623,578.321,1505.57,1503.17,1.53623,0.00112645
648.0,1.53523,578.982,1525.29,1522.86,1.53583,0.000731843
660.0,1.53683,579.642,1544.97,1542.51,1.53672,0.00162739
672.0,1.53632,580.303,1564.61,1562.11,1.53632,0.00123315
684.0,1.53614,580.963,1584.2,1581.67,1.53658,0.00149906
696.0,1.53662,581.624,1603.74,1601.19,1.53662,0.00154513
708.0,1.53731,582.284,1623.24,1620.66,1.53727,0.00220139
720.0,1.53499,582.945,1642.7,1640.09,1.53518,0.00011789
732.0,1.53616,583.605,1662.11,1659.47,1.53626,0.00120452
744.0,1.53669,584.265,1681.48,1678.81,1.53653,0.00148136
756.0,1.5372,584.926,1700.81,1698.11,1.53678,0.00173841
768.0,1.5364,585.586,1720.09,1717.36,1.5362,0.00116564
780.0,1.53445,586.247,1739.33,1736.57,1.53445,-0.000577009
792.0,1.53577,586.907,1758.52,1755.73,1.53577,0.000750365
804.0,1.53518,587.568,1777.68,1774.86,1.53514,0.000127802
816.0,1.53445,588.228,1796.79,1793.93,1.53456,-0.000444784
828.0,1.53528,588.889,1815.85,1812.97,1.53516,0.00016258
840.0,1.53326,589.549,1834.88,1831.97,1.53371,-0.0012801
852.0,1.53557,590.21,1853.86,1850.92,1.53511,0.000127119
864.0,1.53575,590.87,1872.79,1869.83,1.53582,0.000844358
876.0,1.53482,591.53,1891.69,1888.69,1.53476,-0.000208342
888.0,1.53458,592.191,1910.55,1907.52,1.53458,-0.000381052
900.0,1.53422,592.851,1929.36,1926.3,1.53439,-0.000563795
912.0,1.53426,593.512,1948.13,1945.04,1.53426,-0.000686607
924.0,1.53461,594.172,1966.86,1963.74,1.53461,-0.000329502
936.0,1.53357,594.833,1985.54,1982.4,1.53357,-0.00136247
948.0,1.53475,595.493,2004.19,2001.02,1.53437,-0.000555497
960.0,1.53263,596.154,2022.79,2019.59,1.5329,-0.00201861
972.0,1.5351,596.814,2041.35,2038.13,1.53469,-0.000221882
984.0,1.5343,597.475,2059.88,2056.62,1.53422,-0.000685216
996.0,1.53472,598.135,2078.36,2075.07,1.53396,-0.000938687
1008.0,1.53384,598.795,2096.8,2093.48,1.53406,-0.000832309
1020.0,1.53434,599.456,2115.2,2111.85,1.53409,-0.00079605
1032.0,1.53441,600.116,2133.56,2130.18,1.53457,-0.000309909
1044.0,1.5336,600.777,2151.88,2148.48,1.53372,-0.00115386
1056.0,1.53393,601.437,2170.15,2166.73,1.53415,-0.000717954
1068.0,1.53405,602.098,2188.39,2184.94,1.5339,-0.000962177
1080.0,1.53436,602.758,2206.59,2203.11,1.53443,-0.000426513
1092.0,1.53344,603.419,2224.75,2221.24,1.53391,-0.000940885
1104.0,1.53388,604.079,2242.87,2239.33,1.53388,-0.000965324
1116.0,1.5341,604.74,2260.95,2257.38,1.53494,0.000100179
1128.0,1.53419,605.4,2278.99,2275.39,1.53419,-0.000644369
1140.0,1.53416,606.06,2296.99,2293.36,1.53416,-0.000669013
1152.0,1.53423,606.721,2314.95,2311.3,1.53423,-0.000593728
1164.0,1.53369,607.381,2332.87,2329.19,1.53373,-0.00108851
1176.0,1.53408,608.042,2350.75,2347.05,1.53435,-0.000463403
1188.0,1.53424,608.702,2368.6,2364.86,1.53424,-0.000568382
1200.0,1.53332,609.363,2386.4,2382.64,1.53404,-0.000763484
1212.0,1.53339,610.023,2404.17,2400.38,1.53362,-0.00117869
1224.0,1.53328,610.684,2421.9,2418.08,1.53331,-0.00148403
1236.0,1.53361,611.344,2439.59,2435.75,1.53361,-0.00117955
1248.0,1.53511,612.005,2457.24,2453.37,1.53441,-0.000375243
1260.0,1.53259,612.665,2474.86,2470.96,1.53259,-0.00219103
1272.0,1.53299,613.325,2492.43,2488.51,1.5332,-0.00157701
1284.0,1.53349,613.986,2509.97,2506.02,1.53349,-0.00128321
1296.0,1.5335,614.646,2527.47,2523.49,1.53379,-0.000979554
1308.0,1.53361,615.307,2544.94,2540.93,1.53372,-0.00104603
1320.0,1.53408,615.967,2562.36,2558.33,1.53427,-0.000492678
1332.0,1.53303,616.628,2579.75,2575.69,1.53303,-0.00172944
1344.0,1.53509,617.288,2597.1,2593.01,1.53471,-4.63886e-05
1356.0,1.53463,617.949,2614.42,2610.3,1.53463,-0.00012341
1368.0,1.53372,618.609,2631.69,2627.55,1.53392,-0.000830477
1380.0,1.53397,619.27,2648.93,2644.77,1.53422,-0.000527694
1392.0,1.5326,619.93,2666.14,2661.94,1.5339,-0.000845013
1404.0,1.53325,620.59,2683.31,2679.08,1.53317,-0.00157242
1416.0,1.53493,621.251,2700.44,2696.19,1.53465,-9.00063e-05
1428.0,1.53421,621.911,2717.53,2713.25,1.53371,-0.00102772
1440.0,1.53297,622.572,2734.59,2730.29,1.53333,-0.00140561
1452.0,1.53164,623.232,2751.61,2747.28,1.53238,-0.00235365
1464.0,1.53407,623.893,2768.6,2764.24,1.53352,-0.00121193
1476.0,1.53337,624.553,2785.54,2781.16,1.53337,-0.00136045
1488.0,1.53223,625.214,2802.46,2798.05,1.53249,-0.0022392
1500.0,1.53227,625.874,2819.34,2814.9,1.53227,-0.0024582
1512.0,1.53296,626.535,2836.18,2831.72,1.53296,-0.00176747
1524.0,1.53337,627.195,2852.99,2848.5,1.53343,-0.00129701
1536.0,1.53362,627.855,2869.76,2865.25,1.53318,-0.00154679
1548.0,1.53245,628.516,2886.5,2881.96,1.53284,-0.0018868
1560.0,1.53462,629.176,2903.2,2898.63,1.53399,-0.000737018
1572.0,1.53321,629.837,2919.86,2915.28,1.53321,-0.00151745
1584.0,1.53449,630.497,2936.49,2931.88,1.53431,-0.000418111
1596.0,1.53341,631.158,2953.09,2948.45,1.53373,-0.000998877
1608.0,1.53301,631.818,2969.65,2964.99,1.53328,-0.00144979
1620.0,1.53485,632.479,2986.18,2981.49,1.53404,-0.000690897
1632.0,1.5348,633.139,3002.67,2997.96,1.53418,-0.000552151
1644.0,1.53369,633.8,3019.13,3014.39,1.53383,-0.000903523
1656.0,1.53553,634.46,3035.56,3030.79,1.53553,0.000794983
1668.0,1.53517,635.12,3051.95,3047.15,1.53517,0.000433523
1680.0,1.5342,635.781,3068.3,3063.49,1.53456,-0.000177938
1692.0,1.53527,636.441,3084.63,3079.78,1.53527,0.000530549
1704.0,1.53585,637.102,3100.91,3096.05,1.53618,0.00143909
1716.0,1.53633,637.762,3117.17,3112.28,1.53625,0.00150787
1728.0,1.53737,638.423,3133.39,3128.47,1.53737,0.00262692
1740.0,1.53873,639.083,3149.58,3144.63,1.53861,0.00386637
1752.0,1.54057,639.744,3165.73,3160.76,1.54057,0.00582627
1764.0,1.54106,640.404,3181.85,3176.86,1.54106,0.00631627
1776.0,1.5425,641.065,3197.94,3192.92,1.5425,0.00775627
1788.0,1.54472,641.725,3213.99,3208.95,1.54438,0.00963627
1800.0,1.5459,642.385,3230.01,3224.95,1.54608,0.0113363
1812.0,1.54718,643.046,3246,3240.91,1.54718,0.0124363
1824.0,1.54924,643.706,3261.96,3256.84,1.54924,0.0144963
1836.0,1.549,644.367,3277.88,3272.74,1.54962,0.0148763
1848.0,1.55092,645.027,3293.77,3288.61,1.55092,0.0161763
1860.0,1.54981,645.688,3309.63,3304.44,1.54981,0.0150663
1872.0,1.55127,646.348,3325.45,3320.24,1.55127,0.0165263
1884.0,1.54947,647.009,3341.25,3336.01,1.55034,0.0155963
1896.0,1.5505,647.669,3357.01,3351.74,1.5505,0.0157563
1908.0,1.55027,648.33,3372.74,3367.45,1.55026,0.0155163
1920.0,1.55136,648.99,3388.43,3383.12,1.55038,0.0156363
1932.0,1.55175,649.65,3404.1,3398.76,1.55175,0.0170063
1944.0,1.55105,650.311,3419.73,3414.37,1.55131,0.0165663
1956.0,1.5534,650.971,3435.33,3429.95,1.5531,0.0183563
1968.0,1.55364,651.632,3450.9,3445.49,1.55302,0.0182763
1980.0,1.55363,652.292,3466.44,3461.01,1.55332,0.0185763
1992.0,1.55512,652.953,3481.95,3476.49,1.55512,0.0203763
2004.0,1.55397,653.613,3497.42,3491.94,1.55305,0.0183063
2016.0,1.55349,654.274,3512.87,3507.36,1.55379,0.0190463
2028.0,1.55257,654.934,3528.28,3522.75,1.55257,0.0178263
2040.0,1.5527,655.595,3543.66,3538.11,1.55264,0.0178963
2047.0,1.55139,655.98,3552.62,3547.05,1.55126,0.0165163