Folder: 2025-diyraman-bio/data/processed/processed_data/2024-09-03

Note: README.md
# DIY Raman spectroscopy for biological research

[![run with conda](https://img.shields.io/badge/run%20with-conda-3EB049?labelColor=000000&logo=anaconda)](https://docs.conda.io/projects/miniconda/en/latest/)

## Purpose

This repository accompanies the pub, "DIY Raman spectroscopy for biological research." It contains the data acquired and analyzed in this effort, Jupyter notebooks for calibration and figure generation, and a summary of data from the spectral library.

## Installation and Setup

This repository uses conda to manage software environments and installations. You can find operating system-specific instructions for installing miniconda [here](https://docs.conda.io/projects/miniconda/en/latest/). After installing conda and [mamba](https://mamba.readthedocs.io/en/latest/), run the following command to create the pipeline run environment.

```{bash}
TODO: Replace <NAME> with the name of your environment
mamba env create -n <NAME> --file envs/dev.yml
conda activate <NAME>
```

<details><summary>Developer Notes (click to expand/collapse)</summary>

1. Install your pre-commit hooks:

    ```{bash}
    pre-commit install
    ```

    This installs the pre-commit hooks defined in your config (`./.pre-commit-config.yaml`).

2. Export your conda environment before sharing:

    As your project develops, the number of dependencies in your environment may increase. Whenever you install new dependencies (using either `pip install` or `mamba install`), you should update the environment file using the following command.

    ```{bash}
    conda env export --from-history --no-builds > envs/dev.yml
    ```

    `--from-history` only exports packages that were explicitly added by you (e.g., the packages you installed with `pip` or `mamba`) and `--no-builds` removes build specification from the exported packages to increase portability between different platforms.
</details>

## Data

The data shared here is collected on the DIY spontaneous Raman system at Arcadia Science, which is the OpenRaman Starter Edition (532 nm excitation), originally created by Luc B (https://www.open-raman.org/about/). The input files are the raw data in CSV format collected from a range of biological research samples that are in the Arcadia spectral library and calibration standards. The outputs include calibration equations for each acquisition day, calibrated data with additional pre-processing, quick look graphs for each sample's data, and performance metrics for the system. 

## Overview

### Description of the folder structure

* [data/](./data/): Data for each sample presented in the pub. It contains folders for raw data (meaning as acquired on the spectrometer) and processed (meaning calibrated or otherwise modified) These are organized into subfolders for each date. 
* [notebooks/](./notebooks/): Jupyter notebooks for gnenerating calibration correction equations and plotting processed data to generate the figures shown in the pub.
* [scripts/](./scripts/): Python scr

File: 2024-09-03_aluminumfoil0.5cmaway_n_n_y_solid_1000_0_5.csv
Pixels #,Intensity (a.u.),Wavelength (nm),Raman shift (cm-1),Raman shift (cm-1) adjusted,Filtered Intensity (a.u.),Baselined Filtered Intensity (a.u.)
0.0,7.54709,543.337,392.223,393.994,7.54709,-0.0179834
12.0,7.54764,543.997,414.551,416.293,7.54764,-0.0174348
24.0,7.54861,544.657,436.825,438.537,7.54769,-0.0173886
36.0,7.5473,545.317,459.044,460.728,7.5477,-0.0173851
48.0,7.54801,545.977,481.21,482.866,7.54801,-0.0170839
60.0,7.55042,546.637,503.323,504.95,7.54957,-0.0155352
72.0,7.55138,547.297,525.382,526.981,7.55048,-0.0146389
84.0,7.55083,547.957,547.388,548.958,7.55153,-0.0136047
96.0,7.55185,548.617,569.341,570.883,7.55124,-0.0139126
108.0,7.54994,549.277,591.241,592.755,7.5511,-0.0140724
120.0,7.55477,549.937,613.089,614.575,7.55314,-0.0120542
132.0,7.54908,550.597,634.884,636.342,7.54908,-0.0161379
144.0,7.55127,551.257,656.627,658.057,7.55153,-0.0137138
156.0,7.54846,551.917,678.319,679.72,7.54979,-0.0154817
168.0,7.55011,552.577,699.958,701.332,7.55031,-0.0149918
180.0,7.54948,553.237,721.546,722.892,7.54978,-0.0155539
192.0,7.55526,553.897,743.082,744.4,7.55495,-0.010418
204.0,7.55686,554.557,764.567,765.858,7.55686,-0.00854385
216.0,7.5626,555.217,786.001,787.264,7.56215,-0.00329102
228.0,7.56323,555.876,807.384,808.62,7.56323,-0.00224897
240.0,7.56803,556.536,828.716,829.924,7.56847,0.00295284
252.0,7.5736,557.196,849.998,851.179,7.573,0.00744515
264.0,7.57164,557.856,871.23,872.383,7.57252,0.00692842
276.0,7.57063,558.516,892.411,893.537,7.57063,0.00500264
288.0,7.57254,559.176,913.542,914.641,7.57198,0.00631782
300.0,7.57385,559.836,934.624,935.695,7.57385,0.00815408
312.0,7.57362,560.496,955.656,956.7,7.57277,0.00704152
324.0,7.57364,561.156,976.638,977.655,7.57325,0.00749002
336.0,7.57064,561.816,997.571,998.562,7.57186,0.00606948
348.0,7.57318,562.476,1018.45,1019.42,7.57351,0.00768984
360.0,7.57631,563.136,1039.29,1040.23,7.57602,0.0101713
372.0,7.5762,563.796,1060.08,1060.99,7.57596,0.0100843
384.0,7.57339,564.456,1080.81,1081.7,7.57326,0.00735851
396.0,7.57088,565.116,1101.5,1102.36,7.57091,0.0049839
408.0,7.57301,565.776,1122.14,1122.97,7.57301,0.00706015
420.0,7.57268,566.436,1142.74,1143.54,7.57237,0.00639737
432.0,7.57529,567.096,1163.28,1164.06,7.57529,0.00929548
444.0,7.57302,567.756,1183.78,1184.53,7.57394,0.00792471
456.0,7.57454,568.416,1204.23,1204.95,7.57447,0.00843507
468.0,7.5742,569.075,1224.63,1225.33,7.57328,0.0072266
480.0,7.57444,569.735,1244.99,1245.66,7.57444,0.00836921
492.0,7.57258,570.395,1265.29,1265.94,7.57278,0.00669285
504.0,7.57071,571.055,1285.55,1286.17,7.57071,0.00460744
516.0,7.57044,571.715,1305.77,1306.36,7.57154,0.00542264
528.0,7.57344,572.375,1325.94,1326.5,7.57319,0.00705863
540.0,7.57156,573.035,1346.06,1346.6,7.57243,0.00628552
552.0,7.57345,573.695,1366.13,1366.65,7.57189,0.00573337
564.0,7.5724,574.355,1386.16,1386.65,7.57329,0.00712218
576.0,7.57436,575.015,1406.14,1406.61,7.57382,0.00764195
588.0,7.57246,575.675,1426.08,1426.52,7.57233,0.00614275
600.0,7.57079,576.335,1445.97,1446.38,7.57146,0.00526447
612.0,7.57079,576.995,1465.82,1466.2,7.5723,0.00609705
624.0,7.57394,577.655,1485.62,1485.98,7.57384,0.00763049
636.0,7.57276,578.315,1505.37,1505.71,7.57311,0.00689492
648.0,7.57115,578.975,1525.08,1525.39,7.57262,0.00640029
660.0,7.57411,579.635,1544.75,1545.03,7.57467,0.00844662
672.0,7.57357,580.295,1564.37,1564.63,7.57357,0.00734405
684.0,7.5729,580.955,1583.94,1584.18,7.5729,0.00667245
696.0,7.57347,581.614,1603.47,1603.68,7.57347,0.00724182
708.0,7.57241,582.274,1622.96,1623.15,7.57354,0.00731219
720.0,7.5701,582.934,1642.4,1642.56,7.57015,0.0039236
732.0,7.57208,583.594,1661.8,1661.94,7.57354,0.00731601
744.0,7.57122,584.254,1681.16,1681.27,7.57242,0.00619947
756.0,7.57307,584.914,1700.47,1700.55,7.57298,0.00676384
768.0,7.57278,585.574,1719.74,1719.8,7.57273,0.00651907
780.0,7.56911,586.234,1738.96,1739,7.56964,0.00343519
792.0,7.57217,586.894,1758.14,1758.15,7.57308,0.00688214
804.0,7.57323,587.554,1777.28,1777.27,7.57277,0.00658007
816.0,7.57139,588.214,1796.38,1796.34,7.57212,0.00593888
828.0,7.57379,588.874,1815.43,1815.37,7.57379,0.00761856
840.0,7.5721,589.534,1834.44,1834.35,7.57153,0.00536921
852.0,7.57364,590.194,1853.41,1853.29,7.57364,0.00749065
864.0,7.57451,590.854,1872.33,1872.2,7.57409,0.00795304
876.0,7.57221,591.514,1891.21,1891.05,7.57221,0.00608651
888.0,7.57366,592.174,1910.05,1909.87,7.57294,0.00683089
900.0,7.57283,592.834,1928.85,1928.64,7.57301,0.00691615
912.0,7.57185,593.494,1947.61,1947.38,7.57165,0.00557228
924.0,7.5725,594.154,1966.33,1966.07,7.57246,0.00639922
936.0,7.56981,594.813,1985,1984.72,7.57165,0.00560701
948.0,7.57184,595.473,2003.63,2003.33,7.57089,0.00486572
960.0,7.57122,596.133,2022.22,2021.89,7.57006,0.00405524
972.0,7.5738,596.793,2040.77,2040.42,7.5736,0.00761555
984.0,7.57211,597.453,2059.28,2058.91,7.57195,0.00598674
996.0,7.57358,598.113,2077.75,2077.35,7.57225,0.00630868
1008.0,7.57098,598.773,2096.18,2095.75,7.57098,0.00506141
1020.0,7.57339,599.433,2114.56,2114.12,7.57216,0.0062648
1032.0,7.5707,600.093,2132.91,2132.44,7.5707,0.00482893
1044.0,7.5696,600.753,2151.22,2150.72,7.5696,0.00375374
1056.0,7.57278,601.413,2169.48,2168.96,7.57093,0.00510918
1068.0,7.56924,602.073,2187.71,2187.17,7.56924,0.00344528
1080.0,7.57082,602.733,2205.89,2205.33,7.57071,0.00494198
1092.0,7.56678,603.393,2224.04,2223.45,7.56846,0.00271937
1104.0,7.57133,604.053,2242.15,2241.54,7.57133,0.00561734
1116.0,7.57108,604.713,2260.21,2259.58,7.57123,0.00554595
1128.0,7.57043,605.373,2278.24,2277.58,7.57043,0.0047752
1140.0,7.56879,606.033,2296.23,2295.55,7.5702,0.00457502
1152.0,7.56736,606.693,2314.18,2313.47,7.56873,0.00313541
1164.0,7.56753,607.353,2332.09,2331.36,7.56888,0.0033163
1176.0,7.56862,608.012,2349.96,2349.21,7.56862,0.0030877
1188.0,7.56545,608.672,2367.79,2367.02,7.5675,0.00199952
1200.0,7.56916,609.332,2385.59,2384.79,7.56916,0.00369167
1212.0,7.56959,609.992,2403.34,2402.52,7.57051,0.00507426
1224.0,7.5652,610.652,2421.06,2420.22,7.56667,0.00126731
1236.0,7.5688,611.312,2438.74,2437.87,7.5688,0.00343066
1248.0,7.56795,611.972,2456.38,2455.49,7.56707,0.00173439
1260.0,7.56615,612.632,2473.98,2473.07,7.56615,0.000848362
1272.0,7.56693,613.292,2491.55,2490.61,7.56693,0.00166257
1284.0,7.56743,613.952,2509.07,2508.12,7.56743,0.00219701
1296.0,7.56698,614.612,2526.56,2525.59,7.56735,0.00215171
1308.0,7.56453,615.272,2544.02,2543.01,7.56652,0.00135669
1320.0,7.56673,615.932,2561.43,2560.41,7.56652,0.00139181
1332.0,7.56528,616.592,2578.81,2577.76,7.56528,0.000187082
1344.0,7.56612,617.252,2596.15,2595.08,7.56599,0.000932476
1356.0,7.56699,617.912,2613.45,2612.36,7.56722,0.00219801
1368.0,7.56504,618.572,2630.72,2629.6,7.56522,0.00023373
1380.0,7.56323,619.232,2647.95,2646.81,7.56323,-0.00172065
1392.0,7.56363,619.892,2665.14,2663.98,7.56452,-0.000395147
1404.0,7.56494,620.551,2682.29,2681.12,7.56453,-0.000349514
1416.0,7.56456,621.211,2699.41,2698.21,7.56402,-0.000823912
1428.0,7.56272,621.871,2716.5,2715.27,7.56272,-0.00208842
1440.0,7.56223,622.531,2733.54,2732.3,7.56305,-0.00172316
1452.0,7.56178,623.191,2750.56,2749.29,7.56178,-0.00295804
1464.0,7.56336,623.851,2767.53,2766.24,7.56297,-0.00173321
1476.0,7.56247,624.511,2784.47,2783.16,7.56247,-0.00219874
1488.0,7.56108,625.171,2801.37,2800.04,7.56148,-0.00315464
1500.0,7.56059,625.831,2818.24,2816.89,7.56059,-0.00401088
1512.0,7.56243,626.491,2835.07,2833.7,7.5624,-0.00216759
1524.0,7.56149,627.151,2851.87,2850.47,7.56208,-0.00245475
1536.0,7.56046,627.811,2868.63,2867.21,7.56046,-0.00404229
1548.0,7.56112,628.471,2885.36,2883.92,7.56115,-0.00332026
1560.0,7.56203,629.131,2902.05,2900.59,7.56255,-0.00188868
1572.0,7.56134,629.791,2918.7,2917.22,7.56134,-0.00306748
1584.0,7.56202,630.451,2935.32,2933.82,7.56119,-0.00318676
1596.0,7.56053,631.111,2951.91,2950.38,7.56053,-0.00381655
1608.0,7.55915,631.771,2968.46,2966.92,7.55922,-0.00509689
1620.0,7.56183,632.431,2984.98,2983.41,7.56183,-0.00245781
1632.0,7.55947,633.091,3001.46,2999.87,7.55906,-0.00519923
1644.0,7.56018,633.75,3017.91,3016.3,7.55947,-0.00476131
1656.0,7.55813,634.41,3034.33,3032.69,7.55836,-0.0058441
1668.0,7.5585,635.07,3050.71,3049.05,7.5585,-0.00567765
1680.0,7.56042,635.73,3067.05,3065.38,7.56042,-0.00373188
1692.0,7.55916,636.39,3083.36,3081.67,7.55881,-0.00531689
1704.0,7.55594,637.05,3099.64,3097.93,7.55641,-0.00769279
1716.0,7.55682,637.71,3115.89,3114.15,7.55681,-0.00726964
1728.0,7.55848,638.37,3132.1,3130.34,7.55809,-0.0059675
1740.0,7.55717,639.03,3148.28,3146.5,7.55718,-0.00685628
1752.0,7.55801,639.69,3164.42,3162.62,7.55869,-0.00532604
1764.0,7.55456,640.35,3180.53,3178.71,7.55579,-0.00820672
1776.0,7.55701,641.01,3196.61,3194.77,7.55615,-0.00782859
1788.0,7.55481,641.67,3212.65,3210.79,7.55518,-0.00878164
1800.0,7.55498,642.33,3228.67,3226.78,7.55617,-0.00777585
1812.0,7.55551,642.99,3244.65,3242.74,7.55551,-0.00842113
1824.0,7.55506,643.65,3260.59,3258.67,7.55506,-0.00885759
1836.0,7.55489,644.31,3276.51,3274.56,7.55554,-0.00836521
1848.0,7.5563,644.97,3292.39,3290.42,7.55583,-0.00806407
1860.0,7.55173,645.63,3308.23,3306.25,7.55287,-0.0110142
1872.0,7.55503,646.29,3324.05,3322.05,7.55503,-0.00884577
1884.0,7.5555,646.949,3339.83,3337.81,7.55595,-0.00791862
1896.0,7.55635,647.609,3355.59,3353.54,7.55588,-0.0079827
1908.0,7.55743,648.269,3371.31,3369.24,7.55703,-0.00682788
1920.0,7.55929,648.929,3386.99,3384.91,7.55929,-0.00456397
1932.0,7.55982,649.589,3402.65,3400.54,7.55975,-0.00410092
1944.0,7.55989,650.249,3418.27,3416.15,7.55934,-0.00450861
1956.0,7.56263,650.909,3433.87,3431.72,7.56065,-0.00319696
1968.0,7.56085,651.569,3449.43,3447.26,7.56085,-0.0029959
1980.0,7.5615,652.229,3464.96,3462.77,7.56176,-0.00208539
1992.0,7.56141,652.889,3480.45,3478.25,7.56165,-0.00219528
2004.0,7.56362,653.549,3495.92,3493.69,7.56362,-0.0002254
2016.0,7.56206,654.209,3511.36,3509.11,7.56212,-0.00172548
2028.0,7.5619,654.869,3526.76,3524.49,7.5619,-0.00194555
2040.0,7.56644,655.529,3542.13,3539.85,7.56644,0.00259433
2047.0,7.56323,655.914,3551.09,3548.79,7.56323,-0.000615678

File: 2024-09-03_aluminumfoil0.5cmaway_n_y_y_solid_1000_0_5.csv
Pixels #,Intensity (a.u.),Wavelength (nm),Raman shift (cm-1),Raman shift (cm-1) adjusted,Filtered Intensity (a.u.),Baselined Filtered Intensity (a.u.)
0.0,0.00121515,543.337,392.223,393.994,0.00121515,0.00115308
13.0,0.000996863,544.052,416.409,418.148,0.00167304,0.00161097
26.0,0.0015691,544.767,440.532,442.24,0.0015691,0.00150703
39.0,0.001838,545.482,464.591,466.268,0.001838,0.00177593
52.0,0.00184466,546.197,488.587,490.233,0.00127223,0.00121016
65.0,0.0017758,546.912,512.521,514.136,0.000779473,0.000717405
78.0,0.00136607,547.627,536.392,537.976,0.00268386,0.00262179
91.0,0.00285873,548.342,560.2,561.754,0.00355997,0.00349791
104.0,0.00215685,549.057,583.947,585.47,0.00263838,0.00257632
117.0,0.000861544,549.772,607.632,609.125,0.00198483,0.00192277
130.0,0.00229569,550.487,631.255,632.718,0.00229569,0.00223363
143.0,0.00351346,551.202,654.818,656.25,0.00260175,0.00253969
156.0,0.0,551.917,678.319,679.72,0.000785712,0.000723657
169.0,0.0019294,552.632,701.759,703.13,0.00168537,0.00162331
182.0,6.21646e-05,553.347,725.139,726.48,0.000784123,0.000722065
195.0,0.00140827,554.062,748.458,749.769,0.00174142,0.00167936
208.0,4.9266e-05,554.777,771.717,772.999,0.00120835,0.00114629
221.0,0.00413457,555.491,794.917,796.168,0.00413457,0.0040725
234.0,0.00832207,556.206,818.057,819.278,0.00789306,0.00783099
247.0,0.0103427,556.921,841.137,842.329,0.0104215,0.0103594
260.0,0.00877596,557.636,864.158,865.321,0.00877596,0.00871388
273.0,0.00615284,558.351,887.12,888.253,0.00615284,0.00609075
286.0,0.00675899,559.066,910.024,911.127,0.00671183,0.00664974
299.0,0.00677788,559.781,932.869,933.943,0.00677788,0.00671579
312.0,0.00491239,560.496,955.656,956.7,0.00419909,0.00413699
325.0,0.00300705,561.211,978.384,979.4,0.00300705,0.00294495
338.0,0.00313799,561.926,1001.06,1002.04,0.00176893,0.00170682
351.0,0.00323814,562.641,1023.67,1024.63,0.00323814,0.00317603
364.0,0.00556286,563.356,1046.22,1047.15,0.00482,0.00475788
377.0,0.00467856,564.071,1068.72,1069.62,0.00429862,0.0042365
390.0,0.00285195,564.786,1091.16,1092.03,0.00259626,0.00253414
403.0,0.00162,565.501,1113.55,1114.39,0.00162,0.00155787
416.0,0.000702099,566.216,1135.88,1136.69,0.000702099,0.000639967
429.0,0.00406994,566.931,1158.15,1158.93,0.00406994,0.0040078
442.0,0.00327547,567.646,1180.37,1181.12,0.00307031,0.00300816
455.0,0.00281584,568.361,1202.53,1203.25,0.0039509,0.00388875
468.0,0.00410063,569.075,1224.63,1225.33,0.00316216,0.0031
481.0,0.00514193,569.79,1246.68,1247.35,0.00467291,0.00461074
494.0,0.00522805,570.505,1268.67,1269.31,0.00310546,0.00304329
507.0,0.0,571.22,1290.61,1291.22,9.80392e-05,3.58602e-05
520.0,0.00368193,571.935,1312.5,1313.08,0.00384555,0.00378336
533.0,0.00436766,572.65,1334.32,1334.88,0.00342539,0.0033632
546.0,0.00700229,573.365,1356.1,1356.63,0.00657234,0.00651014
559.0,0.00197456,574.08,1377.82,1378.32,0.00309894,0.00303673
572.0,0.00354366,574.795,1399.49,1399.96,0.00354366,0.00348145
585.0,0.00355486,575.51,1421.1,1421.54,0.00259274,0.00253052
598.0,0.000978414,576.225,1442.66,1443.07,0.000978414,0.00091619
611.0,0.0016537,576.94,1464.16,1464.55,0.00161916,0.00155693
624.0,0.00316138,577.655,1485.62,1485.98,0.00307553,0.0030133
637.0,0.00237841,578.37,1507.01,1507.35,0.00223771,0.00217548
650.0,0.00236708,579.085,1528.36,1528.67,0.00173908,0.00167685
663.0,0.0023316,579.8,1549.65,1549.93,0.0023316,0.00226938
676.0,0.00194183,580.515,1570.9,1571.15,0.00186762,0.0018054
689.0,0.00134124,581.23,1592.09,1592.31,0.00229901,0.00223679
702.0,0.00162375,581.944,1613.22,1613.42,0.000892678,0.000830461
715.0,0.0030952,582.659,1634.31,1634.48,0.00354575,0.00348354
728.0,0.00422295,583.374,1655.34,1655.48,0.00342187,0.00335966
741.0,0.00411087,584.089,1676.32,1676.44,0.0021132,0.00205099
754.0,0.00159793,584.804,1697.25,1697.34,0.00159793,0.00153573
767.0,0.00256801,585.519,1718.13,1718.2,0.00270396,0.00264176
780.0,0.0,586.234,1738.96,1739,0.000195315,0.000133116
793.0,0.0031578,586.949,1759.74,1759.75,0.0031578,0.0030956
806.0,0.00207308,587.664,1780.47,1780.45,0.00207308,0.00201089
819.0,0.00149787,588.379,1801.14,1801.1,0.00275753,0.00269534
832.0,0.00230938,589.094,1821.77,1821.7,0.00230938,0.0022472
845.0,0.000732744,589.809,1842.35,1842.25,0.000732744,0.000670566
858.0,0.00385149,590.524,1862.87,1862.75,0.00357896,0.00351679
871.0,0.00403711,591.239,1883.35,1883.2,0.00403711,0.00397494
884.0,0.00161048,591.954,1903.78,1903.6,0.00184822,0.00178606
897.0,0.0,592.669,1924.16,1923.96,0.00169047,0.00162831
910.0,0.00189812,593.384,1944.49,1944.26,0.0019406,0.00187845
923.0,0.00233032,594.099,1964.77,1964.51,0.00286676,0.00280461
936.0,0.000351166,594.813,1985,1984.72,0.00217384,0.0021117
949.0,0.00129832,595.528,2005.18,2004.88,0.0015979,0.00153576
962.0,0.000943169,596.243,2025.32,2024.98,0.002078,0.00201586
975.0,0.00219828,596.958,2045.4,2045.05,0.00237846,0.00231632
988.0,0.000824727,597.673,2065.44,2065.06,0.00223762,0.00217548
1001.0,0.00244332,598.388,2085.43,2085.02,0.00244332,0.00238119
1014.0,0.00185257,599.103,2105.38,2104.94,0.00122299,0.00116086
1027.0,0.00242971,599.818,2125.27,2124.81,0.00242971,0.00236758
1040.0,0.00298419,600.533,2145.12,2144.63,0.0029655,0.00290337
1053.0,0.00341823,601.248,2164.92,2164.41,0.00333819,0.00327605
1066.0,0.00135366,601.963,2184.67,2184.14,0.00156185,0.00149971
1079.0,0.00345519,602.678,2204.38,2203.82,0.00312418,0.00306204
1092.0,0.0,603.393,2224.04,2223.45,0.000952829,0.000890685
1105.0,0.00288781,604.108,2243.65,2243.04,0.00288781,0.00282566
1118.0,0.0018891,604.823,2263.22,2262.58,0.0018891,0.00182695
1131.0,0.00231175,605.538,2282.74,2282.08,0.00231175,0.00224959
1144.0,0.0025076,606.253,2302.22,2301.53,0.00239433,0.00233217
1157.0,0.00264259,606.968,2321.65,2320.93,0.00313622,0.00307405
1170.0,0.00099865,607.682,2341.03,2340.29,0.00191234,0.00185017
1183.0,0.00227232,608.397,2360.37,2359.6,0.00221786,0.00215568
1196.0,0.00227699,609.112,2379.66,2378.87,0.00234215,0.00227997
1209.0,0.00315163,609.827,2398.91,2398.09,0.00315163,0.00308944
1222.0,0.00362246,610.542,2418.11,2417.27,0.00362246,0.00356027
1235.0,0.00246351,611.257,2437.27,2436.4,0.00337349,0.00331129
1248.0,0.00271532,611.972,2456.38,2455.49,0.00182766,0.00176546
1261.0,0.000408559,612.687,2475.45,2474.53,0.00107967,0.00101747
1274.0,0.0019507,613.402,2494.47,2493.53,0.0019507,0.00188849
1287.0,0.00307438,614.117,2513.45,2512.49,0.00307438,0.00301217
1300.0,0.00201319,614.832,2532.39,2531.4,0.00197057,0.00190836
1313.0,0.000354398,615.547,2551.28,2550.27,0.00116818,0.00110597
1326.0,0.00442203,616.262,2570.12,2569.09,0.00284494,0.00278273
1339.0,0.00395618,616.977,2588.93,2587.87,0.00395618,0.00389397
1352.0,0.00310375,617.692,2607.69,2606.6,0.00363593,0.00357372
1365.0,0.00214319,618.407,2626.4,2625.3,0.00281372,0.00275151
1378.0,0.00282587,619.122,2645.08,2643.95,0.00291279,0.00285058
1391.0,0.00245956,619.837,2663.71,2662.55,0.00266072,0.00259851
1404.0,0.00330073,620.551,2682.29,2681.12,0.00289642,0.00283421
1417.0,0.00342568,621.266,2700.84,2699.64,0.00275712,0.00269491
1430.0,0.00256084,621.981,2719.34,2718.11,0.00170111,0.0016389
1443.0,0.00350496,622.696,2737.8,2736.55,0.00350415,0.00344194
1456.0,0.00236185,623.411,2756.22,2754.94,0.00232096,0.00225875
1469.0,0.000883274,624.126,2774.59,2773.29,0.000723382,0.000661167
1482.0,0.00236065,624.841,2792.93,2791.6,0.0026116,0.00254938
1495.0,0.00189381,625.556,2811.22,2809.87,0.00270298,0.00264076
1508.0,0.00175102,626.271,2829.47,2828.1,0.000906972,0.000844749
1521.0,0.00271833,626.986,2847.67,2846.28,0.0023671,0.00230487
1534.0,0.000222048,627.701,2865.84,2864.42,0.00112722,0.00106499
1547.0,0.00120704,628.416,2883.96,2882.53,0.00192703,0.0018648
1560.0,0.00290964,629.131,2902.05,2900.59,0.00341397,0.00335173
1573.0,0.00292439,629.846,2920.09,2918.6,0.00292439,0.00286215
1586.0,0.00231401,630.561,2938.09,2936.58,0.00231401,0.00225176
1599.0,0.0021146,631.276,2956.05,2954.52,0.0021146,0.00205235
1612.0,0.00138,631.991,2973.97,2972.42,0.00188532,0.00182306
1625.0,0.00167616,632.706,2991.85,2990.27,0.00167616,0.0016139
1638.0,0.000758117,633.421,3009.69,3008.09,0.00108526,0.00102299
1651.0,0.00104547,634.135,3027.49,3025.87,0.00101309,0.000950813
1664.0,0.00315217,634.85,3045.25,3043.6,0.00315217,0.00308989
1677.0,0.0024679,635.565,3062.97,3061.3,0.0024679,0.00240561
1690.0,0.00246856,636.28,3080.65,3078.96,0.00246856,0.00240627
1703.0,0.000406754,636.995,3098.29,3096.57,0.000578098,0.000515797
1716.0,0.00137927,637.71,3115.89,3114.15,0.00130117,0.00123886
1729.0,0.00304438,638.425,3133.45,3131.69,0.00303611,0.00297379
1742.0,0.0,639.14,3150.97,3149.19,0.000285344,0.000223021
1755.0,0.00223888,639.855,3168.45,3166.65,0.0031209,0.00305857
1768.0,0.000757704,640.57,3185.9,3184.07,0.000757704,0.000695371
1781.0,0.0027757,641.285,3203.3,3201.45,0.00303023,0.00296789
1794.0,0.00461691,642,3220.66,3218.79,0.0031354,0.00307306
1807.0,0.00388765,642.715,3237.99,3236.1,0.00388765,0.0038253
1820.0,0.0021848,643.43,3255.28,3253.36,0.00295615,0.0028938
1833.0,0.00149696,644.145,3272.53,3270.59,0.00231635,0.00225399
1846.0,0.00314471,644.86,3289.74,3287.78,0.00327557,0.00321321
1859.0,0.000782983,645.575,3306.92,3304.93,0.000782983,0.000720618
1872.0,0.00180371,646.29,3324.05,3322.05,0.00180371,0.00174134
1885.0,0.000934363,647.004,3341.15,3339.12,0.00169453,0.00163216
1898.0,0.00026201,647.719,3358.21,3356.16,0.00124913,0.00118676
1911.0,0.00278229,648.434,3375.23,3373.16,0.00278229,0.00271992
1924.0,0.00265216,649.149,3392.22,3390.12,0.00250312,0.00244075
1937.0,0.00247294,649.864,3409.16,3407.05,0.00247294,0.00241057
1950.0,0.00316999,650.579,3426.07,3423.94,0.00234997,0.0022876
1963.0,0.0,651.294,3442.95,3440.79,0.001182,0.00111963
1976.0,0.000799054,652.009,3459.78,3457.6,0.0012849,0.00122253
1989.0,0.00350832,652.724,3476.58,3474.38,0.00350832,0.00344595
2002.0,0.00382033,653.439,3493.34,3491.12,0.00356629,0.00350392
2015.0,0.00231782,654.154,3510.07,3507.83,0.00231782,0.00225545
2028.0,0.0017477,654.869,3526.76,3524.49,0.0017477,0.00168533
2041.0,0.00635094,655.584,3543.41,3541.12,0.00607208,0.00600971
2047.0,0.00278049,655.914,3551.09,3548.79,0.00278049,0.00271812